condition_label,target,rotation_deg,cursorjump,targetjump,arrow_offset,aiming_target,aiming_direction,aiming_type,feedback_type,hold_duration,hold_target,phase,trialtype,mousex_rel,mousey_rel,mouse_time,step,points,cumulativetime,version,trials.thisRepN,trials.thisTrialN,trials.thisN,trials.thisIndex,trials.ran,participant,condition,qualtrics,group,date,expName,psychopyVersion,OS,frameRate
control,105,0,0,10,NA,0,NA,0,1,0.5,FALSE,practice,1,"[0.005967,0.005967,0.005967,0.005967,0.005967,0.005967,0.005967,0.005967,0.005967,0.005967,0.005967,0.005967,0.005967,0.005967,0.005967,0.005967,0.005967,0.005967,0.005967,0.005967,0.005967,0.005967,0.005967,0.005967,0.005967,0.005967,0.005967,0.005967,0.005967,0.005967,0.005967,0.005967,0.005967,0.005967,0.005967,0.005967,0.005967,0.000963,-0.023513,-0.048047,-0.064159,-0.081429,-0.088768,-0.095395,-0.098348,-0.099525,-0.10056,-0.102165,-0.102934,-0.105231,-0.108963,-0.11202,-0.114185,-0.117109,-0.118448,-0.11971,-0.120346,-0.121581,-0.122843,-0.124875,-0.126907,-0.129964,-0.133563,-0.137702,-0.140323,-0.140323,-0.140323,-0.119976,-0.101766,-0.061282,-0.045123,-0.032524,-0.026723,-0.023494,-0.021719,-0.021719,-0.021719,-0.021719,-0.023817,-0.025916,-0.028004,-0.030036,-0.032808,-0.036492,-0.039284,-0.041306,-0.041942,-0.042578,-0.042578,-0.042578,-0.042578,-0.042578,-0.039559,-0.036682,-0.032827,-0.029381]","[-0.012762,-0.012762,-0.012762,-0.012762,-0.012762,-0.012762,-0.012762,-0.012762,-0.012762,-0.012762,-0.012762,-0.012762,-0.012762,-0.012762,-0.012762,-0.012762,-0.012762,-0.012762,-0.012762,-0.012762,-0.012762,-0.012762,-0.012762,-0.012762,-0.012762,-0.012762,-0.012762,-0.012762,-0.012762,-0.012762,-0.012762,-0.012762,-0.012762,-0.012762,-0.012762,-0.0077,0.035969,0.114757,0.277297,0.440261,0.562308,0.713802,0.800672,0.88224,0.941731,0.96609,0.987612,1.002684,1.006101,1.012935,1.021782,1.028616,1.034117,1.039618,1.042652,1.044538,1.045488,1.045488,1.045488,1.045488,1.045488,1.039505,1.025922,1.004144,0.960503,0.900785,0.819345,0.674798,0.577237,0.38705,0.314614,0.243822,0.213877,0.187392,0.173923,0.165572,0.158766,0.154641,0.150501,0.147396,0.144305,0.142334,0.139257,0.137088,0.135018,0.133061,0.13119,0.130254,0.127248,0.118373,0.10479,0.089506,0.070082,0.054386,0.037117,0.025477]","[0.0003,0.0218,0.0332,0.0492,0.0671,0.0827,0.1007,0.1159,0.1329,0.1498,0.1658,0.1833,0.1993,0.2174,0.2333,0.2502,0.2673,0.2829,0.2992,0.3166,0.3324,0.3495,0.3667,0.3837,0.3992,0.4162,0.4341,0.4502,0.4674,0.4824,0.4995,0.5164,0.5325,0.5493,0.5661,0.5839,0.5989,0.6169,0.634,0.6507,0.6674,0.6824,0.6998,0.7159,0.7334,0.7507,0.7658,0.7832,0.7991,0.8159,0.8334,0.8502,0.8671,0.8841,0.9,0.9162,0.9341,0.949,0.9668,0.983,1.0003,1.0171,1.0339,1.0498,1.0669,1.0827,1.1003,1.1166,1.1326,1.1505,1.1669,1.184,1.1991,1.2161,1.2339,1.2495,1.2674,1.2825,1.3005,1.3174,1.3326,1.3497,1.3666,1.3823,1.3998,1.416,1.4334,1.4496,1.4656,1.4831,1.5,1.5164,1.5337,1.5502,1.5668,1.5836]","[1,1,1,1,1,1,1,1,1,1,1,1,1,1,1,1,1,1,1,1,1,1,1,1,1,1,1,1,1,1,1,1,1,1,1,1,1,1,1,1,1,1,1,1,1,2,2,2,2,2,2,2,2,2,2,2,2,2,2,2,2,2,2,2,2,2,2,2,2,2,2,2,2,2,2,2,2,2,2,2,2,2,2,2,2,2,2,2,2,2,2,2,2,2,2,2]",1,5.614,4,0,0,0,0,1,,1,SV_6SxWlNLsoRj8nqK,304B,2022-06-01_13h57.00.033,implicit_time,2021.1.4,MacIntel,60.0024001
control,97.5,0,0,10,NA,0,NA,0,0,0.5,FALSE,practice,0,"[-0.025033,-0.025033,-0.025033,-0.025033,-0.025033,-0.025033,-0.025033,-0.025033,-0.025033,-0.025033,-0.025033,-0.025033,-0.025033,-0.025033,-0.025033,-0.025033,-0.025033,-0.025033,-0.025033,-0.025033,-0.025033,-0.036378,-0.061861,-0.089537,-0.138101,-0.181072,-0.23013,-0.253847,-0.269617,-0.276994,-0.281807,-0.283478,-0.283478,-0.283478,-0.283478,-0.262667,-0.246849,-0.187348,-0.156321,-0.115998,-0.089765,-0.074773,-0.061909,-0.056573,-0.053411,-0.051427,-0.051427,-0.051427,-0.051427,-0.051427,-0.051427,-0.051427,-0.052642,-0.05324,-0.053838,-0.054427,-0.054427,-0.054427,-0.051541,-0.041733,-0.032723]","[0.009342,0.009342,0.009342,0.009342,0.009342,0.009342,0.009342,0.009342,0.009342,0.009342,0.009342,0.009342,0.009342,0.009342,0.009342,0.009342,0.009342,0.009342,0.009342,0.009342,0.009342,0.096297,0.213211,0.356,0.589133,0.824548,1.112962,1.278975,1.394003,1.451468,1.466667,1.466667,1.466667,1.431788,1.329294,1.126616,1.042227,0.761696,0.62981,0.444713,0.318258,0.244389,0.169826,0.123845,0.101855,0.082431,0.072577,0.068437,0.065431,0.063574,0.062638,0.062638,0.062638,0.062638,0.062638,0.061773,0.060894,0.049254,0.031985,0.009229,-0.007218]","[0.0002,0.0163,0.0333,0.0489,0.066,0.0828,0.099,0.1173,0.1331,0.1492,0.1663,0.1773,0.195,0.2107,0.2283,0.2441,0.2608,0.2787,0.2951,0.3124,0.3282,0.3459,0.362,0.3793,0.3956,0.4113,0.4287,0.4451,0.4626,0.4789,0.4945,0.5121,0.5286,0.5443,0.5621,0.5791,0.5942,0.6113,0.6291,0.6448,0.6609,0.6787,0.6954,0.7107,0.7286,0.7458,0.7611,0.779,0.7944,0.8123,0.8288,0.8455,0.8619,0.8785,0.8945,0.9112,0.9282,0.9452,0.9618,0.9784,0.9958]","[1,1,1,1,1,1,1,1,1,1,1,1,1,1,1,1,1,1,1,1,1,1,1,1,1,1,2,2,2,2,2,2,2,2,2,2,2,2,2,2,2,2,2,2,2,2,2,2,2,2,2,2,2,2,2,2,2,2,2,2,2]",1,7.1256,4,1,0,1,0,1,,1,SV_6SxWlNLsoRj8nqK,304B,2022-06-01_13h57.00.033,implicit_time,2021.1.4,MacIntel,60.0024001
control,135,0,0,10,NA,0,NA,0,1,0.5,FALSE,practice,1,"[-0.005199,-0.005199,-0.005199,-0.005199,-0.005199,-0.005199,-0.005199,-0.005199,-0.005199,-0.005199,-0.005199,-0.005199,-0.005199,-0.005199,-0.005199,-0.005199,-0.005199,-0.005199,-0.005199,-0.005199,-0.005199,-0.020855,-0.060788,-0.112722,-0.21829,-0.396499,-0.561008,-0.665218,-0.734441,-0.774982,-0.803389,-0.815096,-0.817128,-0.815875,-0.801291,-0.769675,-0.70575,-0.627544,-0.524028,-0.412953,-0.339125,-0.259648,-0.196994,-0.165748,-0.134142,-0.11164,-0.095101,-0.081847,-0.072201,-0.063409,-0.057836,-0.052737,-0.051227,-0.049908,-0.049281,-0.048655,-0.048066,-0.047477,-0.046129,-0.044676,-0.043034,-0.039863,-0.037385,-0.03504,-0.033464,-0.032713,-0.032713,-0.032713,-0.032713,-0.032713,-0.032713,-0.03202,-0.030634,-0.029248,-0.027862,-0.026485]","[-0.007615,-0.007615,-0.007615,-0.007615,-0.007615,-0.007615,-0.007615,-0.007615,-0.007615,-0.007615,-0.007615,-0.007615,-0.007615,-0.007615,-0.007615,-0.007615,-0.007615,-0.007615,-0.007615,-0.007615,-0.007615,0.017438,0.065091,0.131955,0.247225,0.423162,0.579945,0.665951,0.726066,0.755571,0.777703,0.786352,0.789287,0.789287,0.789287,0.782538,0.735268,0.661442,0.55251,0.427061,0.33866,0.239214,0.160383,0.111879,0.057718,0.015836,-0.016434,-0.046988,-0.06576,-0.088757,-0.104084,-0.120672,-0.127464,-0.13047,-0.132341,-0.133277,-0.133277,-0.133277,-0.12986,-0.124359,-0.114477,-0.106097,-0.096187,-0.087807,-0.079499,-0.072679,-0.067178,-0.061705,-0.058671,-0.056771,-0.053737,-0.048633,-0.044464,-0.040296,-0.036128,-0.031988]","[0.0002,0.0167,0.0317,0.0497,0.0669,0.0822,0.0995,0.1167,0.1322,0.1493,0.166,0.1834,0.1987,0.2162,0.2334,0.2486,0.2667,0.2834,0.2994,0.316,0.3324,0.3491,0.3655,0.3834,0.3986,0.4168,0.4322,0.45,0.4664,0.4834,0.4992,0.5154,0.5327,0.5496,0.5653,0.5831,0.5986,0.6166,0.633,0.6499,0.6651,0.6819,0.6998,0.7157,0.7332,0.7502,0.7667,0.7825,0.7992,0.8157,0.832,0.8492,0.8664,0.8835,0.8999,0.9153,0.934,0.9487,0.9665,0.9822,1.0006,1.0173,1.0327,1.0498,1.0666,1.0845,1.0988,1.1164,1.1326,1.1491,1.1657,1.1823,1.2004,1.2165,1.2321,1.2494]","[1,1,1,1,1,1,1,1,1,1,1,1,1,1,1,1,1,1,1,1,1,1,1,1,1,1,1,1,2,2,2,2,2,2,2,2,2,2,2,2,2,2,2,2,2,2,2,2,2,2,2,2,2,2,2,2,2,2,2,2,2,2,2,2,2,2,2,2,2,2,2,2,2,2,2,2]",2,9.1417,4,2,0,2,0,1,,1,SV_6SxWlNLsoRj8nqK,304B,2022-06-01_13h57.00.033,implicit_time,2021.1.4,MacIntel,60.0024001
control,142.5,0,0,10,NA,0,NA,0,0,0.5,FALSE,practice,0,"[-0.016526,-0.016526,-0.016526,-0.016526,-0.016526,-0.016526,-0.016526,-0.016526,-0.016526,-0.016526,-0.016526,-0.016526,-0.016526,-0.016526,-0.016526,-0.016526,-0.016526,-0.016526,-0.016526,-0.016526,-0.016526,-0.016526,-0.046186,-0.108725,-0.192285,-0.431477,-0.677048,-0.753753,-0.857403,-0.893368,-0.919116,-0.928231,-0.928867,-0.923816,-0.894478,-0.82779,-0.746993,-0.651356,-0.55008,-0.442946,-0.377871,-0.29997,-0.237915,-0.204058,-0.166252,-0.139848,-0.118713,-0.110301,-0.104472,-0.099915,-0.095357,-0.091692,-0.086138,-0.08159,-0.076027,-0.066931,-0.054152,-0.039701,-0.023675,-0.011304,-0.00029]","[-0.001448,-0.001448,-0.001448,-0.001448,-0.001448,-0.001448,-0.001448,-0.001448,-0.001448,-0.001448,-0.001448,-0.001448,-0.001448,-0.001448,-0.001448,-0.001448,-0.001448,-0.001448,-0.001448,-0.001448,-0.001448,-0.001448,0.020713,0.075654,0.147466,0.364124,0.584085,0.657727,0.750354,0.779674,0.7989,0.804472,0.805422,0.805422,0.791173,0.751856,0.694505,0.619857,0.532321,0.438418,0.378671,0.305214,0.237867,0.196821,0.149777,0.114502,0.087861,0.076745,0.070493,0.06709,0.064821,0.063786,0.063786,0.063786,0.064935,0.066381,0.066381,0.06485,0.053663,0.0431,0.031177]","[0.0002,0.0167,0.0329,0.05,0.0654,0.0835,0.0999,0.1164,0.1333,0.1501,0.1652,0.1835,0.2,0.2153,0.2334,0.2502,0.2666,0.2831,0.3,0.3164,0.3332,0.3498,0.3659,0.3826,0.3991,0.4171,0.4335,0.449,0.4668,0.4818,0.4989,0.5163,0.5335,0.5502,0.5668,0.5836,0.5987,0.6164,0.6326,0.6488,0.6664,0.6828,0.6997,0.716,0.7332,0.7488,0.7665,0.7827,0.7992,0.8169,0.8329,0.8485,0.8663,0.8823,0.8999,0.9169,0.9333,0.9506,0.9665,0.9832,0.9989]","[1,1,1,1,1,1,1,1,1,1,1,1,1,1,1,1,1,1,1,1,1,1,1,1,1,1,1,2,2,2,2,2,2,2,2,2,2,2,2,2,2,2,2,2,2,2,2,2,2,2,2,2,2,2,2,2,2,2,2,2,2]",2,10.6577,4,3,0,3,0,1,,1,SV_6SxWlNLsoRj8nqK,304B,2022-06-01_13h57.00.033,implicit_time,2021.1.4,MacIntel,60.0024001
control,45,0,0,10,NA,0,NA,0,1,0.5,FALSE,practice,1,"[0.005986,0.005986,0.005986,0.005986,0.005986,0.005986,0.005986,0.005986,0.005986,0.005986,0.005986,0.005986,0.005986,0.005986,0.005986,0.005986,0.005986,0.005986,0.005986,0.005986,0.005986,0.005986,0.028402,0.067927,0.147176,0.28343,0.463234,0.6139,0.662112,0.733377,0.764822,0.789251,0.798631,0.801603,0.80222,0.797758,0.789954,0.768136,0.75209,0.732779,0.70946,0.673126,0.631255,0.578581,0.49184,0.435045,0.366809,0.30914,0.274904,0.222077,0.196252,0.18222,0.175612,0.165548,0.159452,0.155769,0.152987,0.149559,0.148923,0.145505,0.143473,0.139808,0.132023,0.121741,0.112636,0.103654,0.097055,0.092337,0.088653,0.085862,0.08308,0.081048,0.078257,0.074573,0.068981,0.064404,0.058812,0.050913,0.049517,0.04533,0.044067,0.043431,0.042843,0.04157,0.038779]","[-0.010564,-0.010564,-0.010564,-0.010564,-0.010564,-0.010564,-0.010564,-0.010564,-0.010564,-0.010564,-0.010564,-0.010564,-0.010564,-0.010564,-0.010564,-0.010564,-0.010564,-0.010564,-0.010564,-0.010564,-0.010564,-0.005488,0.036621,0.0789,0.147155,0.250854,0.396238,0.54752,0.601851,0.672699,0.700035,0.721061,0.729597,0.733964,0.736984,0.7404,0.744342,0.749078,0.749078,0.744158,0.727626,0.691613,0.648256,0.58047,0.464478,0.382967,0.28413,0.203768,0.157235,0.087592,0.054996,0.035416,0.025562,0.010661,0.002933,-0.001405,-0.003461,-0.006467,-0.006467,-0.006467,-0.006467,-0.006467,-0.006467,-0.005021,-0.002327,0.000367,0.00282,0.005117,0.007315,0.008364,0.009413,0.009413,0.009413,0.009413,0.009413,0.009413,0.009413,0.009413,0.009413,0.009413,0.009413,0.009413,0.009413,0.009413,0.009413]","[0.0003,0.0156,0.0328,0.05,0.0652,0.0835,0.0999,0.1161,0.1319,0.149,0.1664,0.1833,0.2002,0.217,0.2328,0.2499,0.2662,0.2819,0.3,0.3162,0.332,0.3501,0.3652,0.383,0.4001,0.4154,0.4335,0.4496,0.4663,0.4834,0.5004,0.5171,0.5335,0.5499,0.5654,0.5825,0.6005,0.6167,0.6327,0.6495,0.6656,0.6829,0.6998,0.7165,0.7329,0.7486,0.766,0.7876,0.7997,0.8249,0.839,0.8535,0.8652,0.8822,0.8994,0.9165,0.9326,0.9493,0.9651,0.983,0.9998,1.0154,1.0322,1.0492,1.0651,1.0828,1.0998,1.116,1.1334,1.1485,1.1655,1.183,1.1993,1.217,1.2329,1.2494,1.2654,1.2825,1.2985,1.3157,1.333,1.3499,1.3661,1.3825,1.4007]","[1,1,1,1,1,1,1,1,1,1,1,1,1,1,1,1,1,1,1,1,1,1,1,1,1,1,1,1,1,2,2,2,2,2,2,2,2,2,2,2,2,2,2,2,2,2,2,2,2,2,2,2,2,2,2,2,2,2,2,2,2,2,2,2,2,2,2,2,2,2,2,2,2,2,2,2,2,2,2,2,2,2,2,2,2]",3,12.5763,4,4,0,4,0,1,,1,SV_6SxWlNLsoRj8nqK,304B,2022-06-01_13h57.00.033,implicit_time,2021.1.4,MacIntel,60.0024001
control,52.5,0,0,10,NA,0,NA,0,0,0.5,FALSE,practice,0,"[0.013619,0.013619,0.013619,0.013619,0.013619,0.013619,0.013619,0.013619,0.013619,0.013619,0.013619,0.013619,0.013619,0.013619,0.013619,0.013619,0.029028,0.075873,0.139619,0.219618,0.313907,0.397827,0.461981,0.534024,0.565374,0.576236,0.584049,0.586186,0.586186,0.580432,0.557931,0.526647,0.489989,0.452581,0.414423,0.377016,0.337234,0.297994,0.264185,0.239404,0.208405,0.182694,0.160573,0.128966,0.119614,0.092973,0.079064,0.066664,0.057151,0.047827,0.038494,0.029513,0.022591,0.015708,0.009062]","[0.010363,0.010363,0.010363,0.010363,0.010363,0.010363,0.010363,0.010363,0.010363,0.010363,0.010363,0.010363,0.010363,0.010363,0.010363,0.01205,0.036635,0.10591,0.204307,0.337441,0.496818,0.650822,0.755316,0.874413,0.928418,0.947856,0.962432,0.966784,0.966784,0.95754,0.913418,0.847106,0.771422,0.689004,0.60229,0.522523,0.438801,0.365187,0.307567,0.274589,0.234989,0.204661,0.182657,0.153648,0.144929,0.118855,0.102947,0.08908,0.080446,0.070677,0.062397,0.055705,0.049225,0.042774,0.03784]","[0.0003,0.0154,0.0332,0.0494,0.0657,0.0837,0.0988,0.1156,0.1339,0.1502,0.1668,0.1821,0.2003,0.2162,0.2333,0.25,0.2667,0.2824,0.2992,0.3164,0.333,0.3501,0.3672,0.3822,0.3991,0.4167,0.4323,0.4499,0.4667,0.4823,0.4998,0.5168,0.5331,0.5502,0.5665,0.5825,0.5999,0.6172,0.6335,0.6501,0.6668,0.6823,0.6994,0.7161,0.7327,0.7496,0.7663,0.7837,0.7995,0.8156,0.833,0.8499,0.8669,0.8828,0.9001]","[1,1,1,1,1,1,1,1,1,1,1,1,1,1,1,1,1,1,1,1,1,1,1,2,2,2,2,2,2,2,2,2,2,2,2,2,2,2,2,2,2,2,2,2,2,2,2,2,2,2,2,2,2,2,2]",3,13.9919,4,5,0,5,0,1,,1,SV_6SxWlNLsoRj8nqK,304B,2022-06-01_13h57.00.033,implicit_time,2021.1.4,MacIntel,60.0024001
control,75,0,0,10,NA,0,NA,0,1,0.5,FALSE,practice,1,"[-0.017247,-0.017247,-0.017247,-0.017247,-0.017247,-0.017247,-0.017247,-0.017247,-0.017247,-0.017247,-0.017247,-0.017247,-0.017247,-0.017247,-0.017247,-0.017247,-0.017247,-0.017247,-0.017247,0.014692,0.048245,0.079453,0.131254,0.198835,0.238142,0.26408,0.281958,0.294092,0.29807,0.299523,0.299523,0.297434,0.283088,0.263824,0.239955,0.21358,0.183777,0.155047,0.117164,0.099951,0.080222,0.063749,0.048587,0.03426,0.019914,0.004666,-0.010164,-0.025014,-0.037318,-0.044306,-0.050098,-0.054702,-0.057408,-0.060048,-0.060817,-0.061586,-0.062288,-0.062288,-0.062288,-0.062288,-0.062288,-0.062288,-0.062288,-0.062288,-0.061728,-0.058063,-0.053506,-0.048949,-0.04442,-0.039863,-0.03709,-0.035078,-0.033065]","[-0.010111,-0.010111,-0.010111,-0.010111,-0.010111,-0.010111,-0.010111,-0.010111,-0.010111,-0.010111,-0.010111,-0.010111,-0.010111,-0.010111,-0.010111,-0.010111,-0.010111,-0.010111,-0.010111,0.144248,0.282117,0.415662,0.606076,0.844384,0.968784,1.061027,1.123199,1.167463,1.187313,1.192814,1.193764,1.18754,1.148606,1.093141,1.011474,0.907378,0.788762,0.660095,0.498732,0.436419,0.362607,0.304561,0.259304,0.220413,0.18148,0.145411,0.112234,0.080871,0.055038,0.038478,0.021209,0.005982,-0.007402,-0.019043,-0.027394,-0.034199,-0.037191,-0.039048,-0.039984,-0.040849,-0.040849,-0.040849,-0.040849,-0.040849,-0.040849,-0.039701,-0.036269,-0.032838,-0.029421,-0.027124,-0.02504,-0.023041,-0.022091]","[0.0002,0.0178,0.0339,0.0502,0.0677,0.0845,0.1012,0.1166,0.1343,0.1513,0.1682,0.1838,0.2006,0.2178,0.234,0.251,0.2681,0.2846,0.3,0.3173,0.3337,0.351,0.3679,0.3842,0.4016,0.4166,0.4344,0.4508,0.4667,0.4846,0.5017,0.5169,0.5345,0.5517,0.5678,0.5843,0.6003,0.6168,0.6338,0.6511,0.6673,0.6835,0.7008,0.7173,0.7339,0.7501,0.7673,0.7833,0.8002,0.8181,0.834,0.8512,0.867,0.8851,0.9002,0.9182,0.934,0.9505,0.9678,0.9833,1.0011,1.0181,1.0342,1.0508,1.0669,1.0836,1.1009,1.1172,1.1345,1.151,1.1675,1.1845,1.2012]","[1,1,1,1,1,1,1,1,1,1,1,1,1,1,1,1,1,1,1,1,1,1,1,1,2,2,2,2,2,2,2,2,2,2,2,2,2,2,2,2,2,2,2,2,2,2,2,2,2,2,2,2,2,2,2,2,2,2,2,2,2,2,2,2,2,2,2,2,2,2,2,2,2]",4,15.7084,4,6,0,6,0,1,,1,SV_6SxWlNLsoRj8nqK,304B,2022-06-01_13h57.00.033,implicit_time,2021.1.4,MacIntel,60.0024001
control,67.5,0,0,10,NA,0,NA,0,0,0.5,FALSE,practice,0,"[-0.027216,-0.027216,-0.027216,-0.027216,-0.027216,-0.027216,-0.027216,-0.027216,-0.027216,-0.027216,-0.027216,-0.027216,-0.027216,-0.027216,-0.027216,-0.027216,-0.027216,-0.027216,-0.027216,-0.027216,-0.025507,-0.004838,0.023132,0.059553,0.142932,0.232331,0.295582,0.352311,0.378193,0.38969,0.399849,0.402337,0.402964,0.399698,0.384602,0.351979,0.323078,0.289791,0.255117,0.209431,0.166155,0.116728,0.068458,0.023389,-0.001847,-0.031584,-0.050848,-0.061367,-0.069827,-0.074527,-0.077992,-0.079654,-0.081325,-0.082996,-0.083831,-0.0846,-0.086129,-0.086888,-0.086888,-0.086888,-0.086888,-0.082958,-0.074906,-0.067112,-0.056848,-0.049101,-0.042341,-0.038676,-0.036663,-0.03541]","[-0.021212,-0.021212,-0.021212,-0.021212,-0.021212,-0.021212,-0.021212,-0.021212,-0.021212,-0.021212,-0.021212,-0.021212,-0.021212,-0.021212,-0.021212,-0.021212,-0.021212,-0.021212,-0.021212,-0.021212,0.029064,0.138818,0.261289,0.381975,0.622565,0.845078,0.991455,1.143431,1.220788,1.26155,1.293253,1.302043,1.302993,1.287028,1.24197,1.146834,1.06823,0.97437,0.881758,0.774995,0.67942,0.576146,0.478174,0.388341,0.329203,0.262821,0.217578,0.191419,0.169216,0.153889,0.142249,0.132381,0.122484,0.112588,0.104265,0.09746,0.087266,0.080488,0.07218,0.063829,0.055478,0.048261,0.038918,0.035005,0.029447,0.025675,0.023208,0.021039,0.020004,0.019068]","[0.0002,0.0171,0.0347,0.0502,0.068,0.0842,0.1001,0.1182,0.1347,0.1509,0.1681,0.1848,0.2013,0.2172,0.235,0.2503,0.268,0.2844,0.3017,0.318,0.3338,0.3505,0.3682,0.384,0.4003,0.4176,0.4352,0.4521,0.4681,0.4852,0.5014,0.5183,0.5339,0.5513,0.568,0.5847,0.6007,0.6186,0.6335,0.6504,0.6673,0.6849,0.7008,0.7172,0.7351,0.752,0.7678,0.7853,0.8011,0.8184,0.8336,0.851,0.868,0.8842,0.9002,0.9173,0.9345,0.9505,0.9682,0.9847,1.0011,1.0177,1.0344,1.0504,1.068,1.0841,1.1017,1.1181,1.1354,1.1515]","[1,1,1,1,1,1,1,1,1,1,1,1,1,1,1,1,1,1,1,1,1,1,1,1,1,1,2,2,2,2,2,2,2,2,2,2,2,2,2,2,2,2,2,2,2,2,2,2,2,2,2,2,2,2,2,2,2,2,2,2,2,2,2,2,2,2,2,2,2,2]",4,17.3753,4,7,0,7,0,1,,1,SV_6SxWlNLsoRj8nqK,304B,2022-06-01_13h57.00.033,implicit_time,2021.1.4,MacIntel,60.0024001
control,75,0,0,10,NA,0,NA,0,1,0.5,FALSE,practice,1,"[-0.007981,-0.007981,-0.007981,-0.007981,-0.007981,-0.007981,-0.007981,-0.007981,-0.007981,-0.007981,-0.007981,-0.007981,-0.007981,-0.007981,-0.007981,-0.007981,-0.007981,-0.007981,-0.007981,-0.007981,0.000916,0.022819,0.050656,0.094103,0.158199,0.201911,0.233831,0.252431,0.266406,0.27103,0.27179,0.269587,0.251899,0.226682,0.199556,0.172706,0.1501,0.119747,0.099182,0.084361,0.069949,0.055537,0.045093,0.036434,0.02824,0.020047,0.010419,0.005321,-0.002123,-0.006623,-0.010155,-0.012453,-0.013924,-0.015386,-0.016924,-0.018529,-0.020893,-0.022555,-0.02339,-0.02339,-0.024292,-0.024292,-0.024292,-0.024292,-0.024292]","[-0.001065,-0.001065,-0.001065,-0.001065,-0.001065,-0.001065,-0.001065,-0.001065,-0.001065,-0.001065,-0.001065,-0.001065,-0.001065,-0.001065,-0.001065,-0.001065,-0.001065,-0.001065,-0.001065,-0.000214,0.095546,0.220328,0.367215,0.576883,0.839535,0.993666,1.102952,1.170427,1.218165,1.233335,1.236752,1.221738,1.166272,1.088547,0.991242,0.882438,0.772713,0.631582,0.547094,0.491828,0.435937,0.384356,0.341538,0.304646,0.273256,0.241865,0.207724,0.187917,0.165813,0.152429,0.14215,0.135344,0.129871,0.124427,0.117621,0.10927,0.097573,0.087748,0.077851,0.066211,0.054571,0.046262,0.039457,0.035317,0.033445]","[0.0002,0.0172,0.0342,0.0511,0.0666,0.0847,0.1012,0.1182,0.1332,0.15,0.1677,0.1847,0.2,0.2179,0.2348,0.2513,0.2679,0.2846,0.3008,0.317,0.335,0.351,0.367,0.385,0.4001,0.4179,0.4345,0.4515,0.4672,0.4845,0.5013,0.5183,0.535,0.5506,0.567,0.5843,0.6005,0.6169,0.6348,0.6502,0.6677,0.684,0.7007,0.7169,0.735,0.7514,0.7666,0.7843,0.8002,0.8177,0.8352,0.8517,0.8674,0.8847,0.901,0.9171,0.9346,0.951,0.968,0.9834,1.0014,1.0178,1.0334,1.0507,1.0672]","[1,1,1,1,1,1,1,1,1,1,1,1,1,1,1,1,1,1,1,1,1,1,1,1,1,2,2,2,2,2,2,2,2,2,2,2,2,2,2,2,2,2,2,2,2,2,2,2,2,2,2,2,2,2,2,2,2,2,2,2,2,2,2,2,2]",5,18.9577,4,8,0,8,0,1,,1,SV_6SxWlNLsoRj8nqK,304B,2022-06-01_13h57.00.033,implicit_time,2021.1.4,MacIntel,60.0024001
control,67.5,0,0,10,NA,0,NA,0,0,0.5,FALSE,practice,0,"[-0.009889,-0.009889,-0.009889,-0.009889,-0.009889,-0.009889,-0.009889,-0.009889,-0.009889,-0.009889,-0.009889,-0.009889,-0.009889,-0.009889,-0.009889,-0.009889,-0.009889,-0.009889,-0.009889,-0.009889,-0.003689,0.017464,0.04834,0.132498,0.213238,0.266881,0.319755,0.344175,0.357201,0.3668,0.369354,0.36998,0.366277,0.349672,0.319195,0.279224,0.239499,0.201759,0.163402,0.126944,0.091805,0.069246,0.032959,0.015262,0.001533,-0.009937,-0.018899,-0.024007]","[0.019366,0.019366,0.019366,0.019366,0.019366,0.019366,0.019366,0.019366,0.019366,0.019366,0.019366,0.019366,0.019366,0.019366,0.019366,0.019366,0.019366,0.019366,0.019366,0.027022,0.097077,0.186074,0.278232,0.515647,0.717942,0.841973,0.983345,1.051584,1.090546,1.120803,1.130926,1.131876,1.124149,1.078892,1.003279,0.900969,0.78828,0.675592,0.572516,0.480003,0.386143,0.324141,0.215394,0.158412,0.113155,0.075242,0.046773,0.026937]","[0.0001,0.0179,0.0341,0.0511,0.0671,0.0842,0.101,0.1175,0.1337,0.1498,0.1673,0.1847,0.2012,0.2164,0.2343,0.2509,0.2673,0.2845,0.3003,0.3181,0.3337,0.351,0.3666,0.3839,0.4009,0.4176,0.4331,0.45,0.4674,0.4842,0.5014,0.517,0.5342,0.5498,0.567,0.5843,0.6012,0.6175,0.6332,0.6508,0.6679,0.6834,0.7008,0.7174,0.7335,0.7513,0.7684,0.784]","[1,1,1,1,1,1,1,1,1,1,1,1,1,1,1,1,1,1,1,1,1,1,1,1,1,1,2,2,2,2,2,2,2,2,2,2,2,2,2,2,2,2,2,2,2,2,2,2]",5,20.2581,4,9,0,9,0,1,,1,SV_6SxWlNLsoRj8nqK,304B,2022-06-01_13h57.00.033,implicit_time,2021.1.4,MacIntel,60.0024001
control,105,0,0,10,NA,0,NA,0,1,0.5,FALSE,practice,1,"[-0.000917,-0.000917,-0.000917,-0.000917,-0.000917,-0.000917,-0.000917,-0.000917,-0.000917,-0.000917,-0.000917,-0.000917,-0.000917,-0.000917,-0.000917,-0.000917,-0.000917,-0.000917,-0.000917,-0.000917,-0.000917,-0.000917,-0.000917,-0.000917,-0.005702,-0.014551,-0.031213,-0.080565,-0.11727,-0.148469,-0.184481,-0.205378,-0.215129,-0.222145,-0.223939,-0.224575,-0.224575,-0.221699,-0.201713,-0.178556,-0.135234,-0.112988,-0.085189,-0.064985,-0.052528,-0.037727,-0.03335,-0.024643,-0.021814,-0.019222,-0.017029,-0.014874,-0.012756,-0.011797,-0.010981,-0.010981,-0.010981,-0.010981,-0.010981,-0.010288]","[0.015538,0.015538,0.015538,0.015538,0.015538,0.015538,0.015538,0.015538,0.015538,0.015538,0.015538,0.015538,0.015538,0.015538,0.015538,0.015538,0.015538,0.015538,0.015538,0.015538,0.015538,0.015538,0.015538,0.017225,0.048516,0.108349,0.212814,0.523119,0.761966,0.94142,1.131323,1.233179,1.283172,1.314775,1.32643,1.32643,1.317554,1.2682,1.164954,1.073376,0.895198,0.795483,0.676868,0.572771,0.507891,0.406687,0.352952,0.266365,0.211325,0.168663,0.141582,0.112673,0.08874,0.073456,0.063602,0.056811,0.051352,0.048361,0.042888,0.038748]","[0.0003,0.0164,0.0334,0.0495,0.0667,0.0827,0.0999,0.1163,0.1337,0.1484,0.1656,0.1836,0.199,0.2165,0.2328,0.2489,0.2668,0.2832,0.2996,0.316,0.332,0.3499,0.3666,0.3829,0.3991,0.4176,0.4322,0.4501,0.4657,0.4836,0.4999,0.5156,0.5334,0.5498,0.5662,0.5834,0.5991,0.6167,0.6341,0.6487,0.6664,0.6839,0.7001,0.7165,0.7324,0.7505,0.7674,0.7831,0.7991,0.8154,0.8332,0.8499,0.8664,0.8838,0.8989,0.917,0.9323,0.9498,0.9666,0.9833]","[1,1,1,1,1,1,1,1,1,1,1,1,1,1,1,1,1,1,1,1,1,1,1,1,1,1,1,1,1,1,2,2,2,2,2,2,2,2,2,2,2,2,2,2,2,2,2,2,2,2,2,2,2,2,2,2,2,2,2,2]",6,22.0584,4,10,0,10,0,1,,1,SV_6SxWlNLsoRj8nqK,304B,2022-06-01_13h57.00.033,implicit_time,2021.1.4,MacIntel,60.0024001
control,112.5,0,0,10,NA,0,NA,0,0,0.5,FALSE,practice,0,"[-0.007648,-0.007648,-0.007648,-0.007648,-0.007648,-0.007648,-0.007648,-0.007648,-0.007648,-0.007648,-0.007648,-0.007648,-0.007648,-0.007648,-0.007648,-0.007648,-0.013497,-0.022602,-0.084676,-0.147064,-0.221082,-0.298698,-0.347774,-0.395265,-0.405956,-0.417216,-0.421346,-0.421346,-0.414918,-0.395721,-0.372706,-0.347233,-0.319424,-0.293751,-0.267879,-0.243915,-0.230348,-0.203061,-0.19558,-0.175433,-0.161476,-0.147491,-0.136487,-0.12591,-0.117498,-0.112941,-0.109285,-0.106513,-0.102867,-0.099202,-0.09643,-0.095186,-0.095186,-0.095186,-0.095186,-0.095186,-0.095186,-0.095186,-0.095186,-0.095186,-0.095186,-0.092898,-0.082587,-0.066314,-0.048541,-0.037423,-0.028242]","[0.003798,0.003798,0.003798,0.003798,0.003798,0.003798,0.003798,0.003798,0.003798,0.003798,0.003798,0.003798,0.003798,0.003798,0.003798,0.003798,0.019451,0.036919,0.15189,0.27741,0.454468,0.6783,0.842172,1.018989,1.060389,1.113345,1.134882,1.134882,1.107503,1.050138,0.976497,0.895354,0.809633,0.727824,0.645052,0.563243,0.507977,0.392651,0.361345,0.279664,0.231657,0.195587,0.173625,0.153024,0.141909,0.137372,0.134082,0.132012,0.132012,0.130878,0.130878,0.130878,0.130878,0.130878,0.130878,0.130878,0.130878,0.130878,0.130878,0.130878,0.130878,0.130027,0.11463,0.08287,0.050601,0.028936,0.010646]","[0.0002,0.0161,0.0326,0.0499,0.0649,0.0826,0.0984,0.1163,0.1322,0.1494,0.1649,0.1829,0.1993,0.2161,0.2331,0.2493,0.2656,0.2816,0.2985,0.3156,0.3323,0.3495,0.3661,0.383,0.3993,0.415,0.433,0.449,0.4667,0.4827,0.4998,0.5152,0.5331,0.5494,0.5654,0.5836,0.5985,0.6164,0.6316,0.6488,0.6664,0.6825,0.6983,0.7155,0.7319,0.749,0.7656,0.7821,0.8,0.8172,0.8319,0.8495,0.866,0.8824,0.8986,0.9149,0.933,0.9493,0.9661,0.9831,0.9996,1.0149,1.0319,1.049,1.0652,1.0835,1.0989]","[1,1,1,1,1,1,1,1,1,1,1,1,1,1,1,1,1,1,1,1,1,1,1,2,2,2,2,2,2,2,2,2,2,2,2,2,2,2,2,2,2,2,2,2,2,2,2,2,2,2,2,2,2,2,2,2,2,2,2,2,2,2,2,2,2,2,2]",6,23.6743,4,11,0,11,0,1,,1,SV_6SxWlNLsoRj8nqK,304B,2022-06-01_13h57.00.033,implicit_time,2021.1.4,MacIntel,60.0024001
control,135,0,0,10,NA,0,NA,0,1,0.5,FALSE,practice,1,"[-0.009956,-0.009956,-0.009956,-0.009956,-0.009956,-0.009956,-0.009956,-0.009956,-0.009956,-0.009956,-0.009956,-0.009956,-0.009956,-0.009956,-0.009956,-0.009956,-0.009956,-0.009956,-0.009956,-0.009956,-0.009956,-0.009956,-0.009956,-0.023779,-0.074641,-0.145402,-0.221585,-0.399832,-0.51892,-0.619465,-0.680229,-0.711161,-0.733967,-0.740746,-0.740746,-0.729761,-0.698695,-0.649249,-0.542997,-0.442424,-0.369697,-0.252603,-0.209584,-0.164267,-0.133449,-0.111469,-0.099715,-0.08798,-0.078002,-0.064263,-0.04968,-0.032239,-0.020058]","[-0.016236,-0.016236,-0.016236,-0.016236,-0.016236,-0.016236,-0.016236,-0.016236,-0.016236,-0.016236,-0.016236,-0.016236,-0.016236,-0.016236,-0.016236,-0.016236,-0.016236,-0.016236,-0.016236,-0.016236,-0.016236,-0.016236,-0.016236,-0.000072,0.054755,0.133217,0.213154,0.395288,0.512117,0.599823,0.652098,0.681391,0.701907,0.708216,0.71125,0.71125,0.702658,0.665752,0.583008,0.487432,0.418299,0.29346,0.24273,0.190086,0.148445,0.117465,0.099913,0.082388,0.068933,0.054712,0.043838,0.034083,0.024839]","[0.0001,0.0163,0.0333,0.0498,0.0667,0.083,0.0995,0.117,0.1332,0.1498,0.1666,0.182,0.1991,0.2163,0.2336,0.2486,0.2665,0.2827,0.2988,0.3168,0.3333,0.3499,0.3657,0.3821,0.4002,0.4159,0.4326,0.4494,0.4662,0.4833,0.4992,0.5163,0.5321,0.5502,0.5671,0.5837,0.5999,0.6162,0.6329,0.6506,0.6652,0.6824,0.7,0.7159,0.7332,0.749,0.7665,0.7831,0.7987,0.8163,0.8322,0.8501,0.8657]","[1,1,1,1,1,1,1,1,1,1,1,1,1,1,1,1,1,1,1,1,1,1,1,1,1,1,1,1,1,1,1,2,2,2,2,2,2,2,2,2,2,2,2,2,2,2,2,2,2,2,2,2,2]",7,25.0576,4,12,0,12,0,1,,1,SV_6SxWlNLsoRj8nqK,304B,2022-06-01_13h57.00.033,implicit_time,2021.1.4,MacIntel,60.0024001
control,127.5,0,0,10,NA,0,NA,0,0,0.5,FALSE,practice,0,"[0.020436,0.020436,0.020436,0.020436,0.020436,0.020436,0.020436,0.020436,0.020436,0.020436,0.020436,0.020436,0.020436,0.020436,0.020436,0.020436,0.020436,0.020436,0.020436,0.020436,0.018736,0.001172,-0.040053,-0.132167,-0.318095,-0.494082,-0.603847,-0.68227,-0.733644,-0.758738,-0.77522,-0.779578,-0.779578,-0.768526,-0.745464,-0.71306,-0.664924,-0.615933,-0.533997,-0.476584,-0.421944,-0.366725,-0.311259,-0.256002,-0.222069,-0.184861,-0.179079,-0.179079,-0.179079,-0.179079,-0.179079,-0.179079,-0.179079,-0.179079,-0.179079,-0.179079,-0.179079,-0.179079,-0.179079,-0.171806,-0.153206,-0.125929,-0.09888,-0.0861,-0.076463,-0.07259,-0.070586,-0.069276,-0.068023,-0.066637,-0.06526,-0.063808,-0.060769,-0.057731,-0.053857,-0.051778,-0.049765,-0.048512,-0.046642,-0.045398,-0.042635,-0.040622,-0.036074]","[-0.009983,-0.009983,-0.009983,-0.009983,-0.009983,-0.009983,-0.009983,-0.009983,-0.009983,-0.009983,-0.009983,-0.009983,-0.009983,-0.009983,-0.009983,-0.009983,-0.009983,-0.009983,-0.009983,-0.009983,-0.006594,0.014177,0.066183,0.163701,0.36713,0.581462,0.726236,0.848666,0.932828,0.972144,1.002102,1.010879,1.011829,0.994389,0.957951,0.907307,0.84074,0.767481,0.653488,0.570616,0.494649,0.423191,0.354171,0.288157,0.246459,0.204718,0.200408,0.200408,0.200408,0.200408,0.200408,0.200408,0.200408,0.200408,0.200408,0.200408,0.200408,0.200408,0.200408,0.191929,0.165898,0.133317,0.101004,0.085068,0.073357,0.067572,0.06458,0.061589,0.059717,0.055577,0.051451,0.045979,0.03896,0.032155,0.02637,0.02223,0.020259,0.018388,0.017452,0.01653,0.01551,0.014475,0.013354]","[0.0002,0.0167,0.0318,0.0498,0.066,0.0827,0.0986,0.116,0.1331,0.1485,0.1664,0.183,0.1997,0.2162,0.2321,0.2496,0.2661,0.2818,0.2997,0.3152,0.3334,0.3496,0.3657,0.3823,0.3991,0.4161,0.432,0.45,0.4659,0.4826,0.4997,0.5166,0.5319,0.5502,0.5661,0.5824,0.5985,0.6155,0.6326,0.6491,0.6653,0.6822,0.6995,0.7161,0.7317,0.7488,0.7664,0.7827,0.7991,0.8152,0.833,0.8494,0.8662,0.8819,0.8998,0.9159,0.9319,0.949,0.9651,0.9819,0.9988,1.0163,1.0334,1.0491,1.0671,1.0834,1.0997,1.1167,1.1319,1.1493,1.1659,1.1836,1.2004,1.2167,1.2334,1.2493,1.2664,1.2821,1.3002,1.3161,1.3329,1.3501,1.3661]","[1,1,1,1,1,1,1,1,1,1,1,1,1,1,1,1,1,1,1,1,1,1,1,1,1,1,1,2,2,2,2,2,2,2,2,2,2,2,2,2,2,2,2,2,2,2,2,2,2,2,2,2,2,2,2,2,2,2,2,2,2,2,2,2,2,2,2,2,2,2,2,2,2,2,2,2,2,2,2,2,2,2,2]",7,26.9414,4,13,0,13,0,1,,1,SV_6SxWlNLsoRj8nqK,304B,2022-06-01_13h57.00.033,implicit_time,2021.1.4,MacIntel,60.0024001
control,45,0,0,10,NA,0,NA,0,1,0.5,FALSE,practice,1,"[-0.005541,-0.005541,-0.005541,-0.005541,-0.005541,-0.005541,-0.005541,-0.005541,-0.005541,-0.005541,-0.005541,-0.005541,-0.005541,-0.005541,-0.005541,-0.005541,-0.005541,-0.005541,-0.005541,-0.005541,-0.005541,0.008245,0.054407,0.11706,0.208054,0.314191,0.480817,0.549727,0.620698,0.654393,0.672679,0.685677,0.690025,0.690719,0.690719,0.683702,0.670201,0.650263,0.624325,0.576435,0.52977,0.469491,0.374177,0.285357,0.185125,0.107433,-0.027776,-0.075438,-0.121533,-0.145915,-0.166223,-0.174986,-0.178879,-0.180265,-0.180265,-0.180265,-0.180265,-0.180265,-0.178262,-0.171635,-0.155608,-0.134455,-0.119872,-0.103883,-0.089509,-0.071621,-0.055424,-0.04592,-0.033891,-0.024928,-0.019213]","[-0.002057,-0.002057,-0.002057,-0.002057,-0.002057,-0.002057,-0.002057,-0.002057,-0.002057,-0.002057,-0.002057,-0.002057,-0.002057,-0.002057,-0.002057,-0.002057,-0.002057,-0.002057,-0.002057,-0.002057,-0.001207,0.022797,0.086642,0.168564,0.277367,0.413791,0.636247,0.733141,0.832828,0.888492,0.921173,0.947332,0.956122,0.958207,0.958207,0.955527,0.943008,0.927227,0.904017,0.864758,0.819926,0.755203,0.644102,0.541267,0.433342,0.340574,0.15837,0.086273,0.014914,-0.019071,-0.045613,-0.057324,-0.062074,-0.063095,-0.063095,-0.063095,-0.059266,-0.056232,-0.054247,-0.054247,-0.054247,-0.054247,-0.058955,-0.063747,-0.066795,-0.066795,-0.062173,-0.05351,-0.044507,-0.037786,-0.031633]","[0.0003,0.0165,0.0334,0.0497,0.0653,0.0837,0.0998,0.1164,0.132,0.1498,0.1659,0.1831,0.1992,0.2163,0.2319,0.2499,0.266,0.2832,0.2993,0.3154,0.3334,0.3498,0.3665,0.3825,0.399,0.4162,0.4327,0.45,0.4658,0.4828,0.5003,0.5164,0.5325,0.5502,0.5655,0.5829,0.5997,0.6167,0.6335,0.6505,0.6671,0.6835,0.6996,0.7155,0.7325,0.749,0.7661,0.7838,0.7997,0.8159,0.8319,0.8498,0.8668,0.8828,0.8997,0.916,0.9334,0.9498,0.9667,0.9833,0.9999,1.0168,1.0333,1.0489,1.0655,1.0832,1.0994,1.1161,1.1337,1.1495,1.167]","[1,1,1,1,1,1,1,1,1,1,1,1,1,1,1,1,1,1,1,1,1,1,1,1,1,1,1,1,2,2,2,2,2,2,2,2,2,2,2,2,2,2,2,2,2,2,2,2,2,2,2,2,2,2,2,2,2,2,2,2,2,2,2,2,2,2,2,2,2,2,2]",8,28.6257,4,14,0,14,0,1,,1,SV_6SxWlNLsoRj8nqK,304B,2022-06-01_13h57.00.033,implicit_time,2021.1.4,MacIntel,60.0024001
control,52.5,0,0,10,NA,0,NA,0,0,0.5,FALSE,practice,0,"[-0.005816,-0.005816,-0.005816,-0.005816,-0.005816,-0.005816,-0.005816,-0.005816,-0.005816,-0.005816,-0.005816,-0.005816,-0.005816,-0.005816,-0.005816,-0.005816,-0.005816,-0.005816,0.014749,0.054198,0.102401,0.188334,0.32042,0.442906,0.525203,0.603,0.627059,0.642478,0.646817,0.64751,0.635813,0.611726,0.575818,0.524188,0.472405,0.427687,0.339617,0.282917,0.184774,0.126811,0.082757,0.035931,0.005701,-0.010525,-0.026609,-0.037299,-0.045654,-0.048579,-0.050857,-0.053012,-0.054484,-0.055889,-0.057361,-0.05869,-0.060019,-0.060655,-0.061928,-0.06319,-0.063893,-0.063893,-0.063893,-0.058405,-0.052443,-0.046461,-0.039644,-0.034299,-0.030093,-0.02733,-0.025393]","[0.001487,0.001487,0.001487,0.001487,0.001487,0.001487,0.001487,0.001487,0.001487,0.001487,0.001487,0.001487,0.001487,0.001487,0.001487,0.001487,0.001487,0.004025,0.053904,0.110688,0.19088,0.327218,0.516611,0.668432,0.762178,0.854464,0.885713,0.908767,0.917543,0.919628,0.912709,0.880652,0.822181,0.721118,0.61722,0.531059,0.372333,0.284442,0.141909,0.067359,0.009555,-0.050363,-0.089154,-0.106792,-0.124019,-0.134198,-0.144166,-0.149639,-0.156402,-0.16186,-0.167333,-0.171473,-0.176946,-0.179923,-0.182915,-0.184786,-0.184786,-0.184786,-0.180604,-0.165249,-0.141288,-0.115001,-0.095208,-0.07577,-0.059805,-0.04781,-0.03902,-0.034866,-0.030896]","[0.0002,0.0163,0.0323,0.0504,0.0665,0.0834,0.0987,0.1166,0.1328,0.1498,0.166,0.1833,0.2,0.2171,0.233,0.2504,0.2668,0.282,0.2997,0.3172,0.3326,0.3489,0.3662,0.3823,0.4009,0.4162,0.4329,0.4503,0.4665,0.4834,0.4996,0.5172,0.5334,0.5488,0.5665,0.5835,0.6,0.6171,0.6338,0.6508,0.6665,0.683,0.6997,0.7156,0.7339,0.749,0.7659,0.7833,0.7988,0.8163,0.8323,0.849,0.8667,0.883,0.9006,0.9172,0.9332,0.9504,0.9673,0.9821,1.0006,1.0172,1.0323,1.0495,1.0666,1.0843,1.1006,1.1158,1.1333]","[1,1,1,1,1,1,1,1,1,1,1,1,1,1,1,1,1,1,1,1,1,1,1,1,1,2,2,2,2,2,2,2,2,2,2,2,2,2,2,2,2,2,2,2,2,2,2,2,2,2,2,2,2,2,2,2,2,2,2,2,2,2,2,2,2,2,2,2,2]",8,30.275,4,15,0,15,0,1,,1,SV_6SxWlNLsoRj8nqK,304B,2022-06-01_13h57.00.033,implicit_time,2021.1.4,MacIntel,60.0024001
control,75,0,0,10,NA,0,NA,0,1,0.5,FALSE,practice,1,"[0.000479,0.000479,0.000479,0.000479,0.000479,0.000479,0.000479,0.000479,0.000479,0.000479,0.000479,0.000479,0.000479,0.000479,0.000479,0.000479,0.00553,0.023313,0.057616,0.114686,0.164389,0.217131,0.246098,0.265352,0.276034,0.284341,0.287019,0.287645,0.286249,0.270812,0.239898,0.21996,0.197762,0.168311,0.146853,0.118627,0.089583,0.063692,0.050182,0.035095,0.022942,0.013315,0.005397,-0.000281,-0.006072,-0.011465,-0.015491,-0.017513,-0.018785,-0.020058,-0.020656,-0.021244,-0.021947,-0.024169,-0.026666,-0.030387,-0.033426,-0.035476,-0.036654,-0.036654,-0.036654,-0.036654,-0.033967,-0.030663,-0.026333,-0.022194,-0.017864,-0.012491]","[0.004082,0.004082,0.004082,0.004082,0.004082,0.004082,0.004082,0.004082,0.004082,0.004082,0.004082,0.004082,0.004082,0.004082,0.004933,0.024343,0.061291,0.133628,0.250032,0.420511,0.575763,0.736884,0.843476,0.913035,0.956619,0.988846,1.000869,1.001819,0.995595,0.947275,0.840286,0.742626,0.637707,0.476643,0.385817,0.259404,0.146715,0.047113,-0.014804,-0.078038,-0.122275,-0.156416,-0.185254,-0.202311,-0.21958,-0.231631,-0.238749,-0.24174,-0.243612,-0.243612,-0.243612,-0.243612,-0.239444,-0.233957,-0.224032,-0.208719,-0.189295,-0.1679,-0.147228,-0.131873,-0.112648,-0.09535,-0.081938,-0.072013,-0.061705,-0.053014,-0.042706,-0.030626]","[0.0004,0.0161,0.0329,0.0486,0.0662,0.0828,0.099,0.1162,0.1328,0.1496,0.1665,0.1828,0.1995,0.2162,0.2325,0.2497,0.265,0.2826,0.2984,0.3158,0.334,0.3484,0.3651,0.3829,0.3985,0.4157,0.4316,0.4491,0.4656,0.4818,0.499,0.5168,0.5313,0.5498,0.5655,0.5834,0.5983,0.6148,0.6332,0.6504,0.6665,0.6819,0.7001,0.7149,0.7319,0.7485,0.7658,0.7816,0.7984,0.8151,0.8329,0.8499,0.8647,0.8825,0.8993,0.916,0.9321,0.95,0.9652,0.9834,0.9994,1.015,1.0321,1.049,1.066,1.0823,1.0983,1.115]","[1,1,1,1,1,1,1,1,1,1,1,1,1,1,1,1,1,1,1,1,1,1,1,1,2,2,2,2,2,2,2,2,2,2,2,2,2,2,2,2,2,2,2,2,2,2,2,2,2,2,2,2,2,2,2,2,2,2,2,2,2,2,2,2,2,2,2,2]",9,31.9075,4,16,0,16,0,1,,1,SV_6SxWlNLsoRj8nqK,304B,2022-06-01_13h57.00.033,implicit_time,2021.1.4,MacIntel,60.0024001
control,67.5,0,0,10,NA,0,NA,0,0,0.5,FALSE,practice,0,"[-0.002987,-0.002987,-0.002987,-0.002987,-0.002987,-0.002987,-0.002987,-0.002987,-0.002987,-0.002987,-0.002987,-0.002987,-0.002987,-0.002987,-0.002987,-0.002987,-0.002987,-0.002987,-0.002987,-0.002987,0.00289,0.017246,0.070129,0.115047,0.160876,0.216086,0.242585,0.256181,0.267052,0.269606,0.269606,0.249354,0.231087,0.202072,0.180103,0.157069,0.132631,0.108259,0.084039,0.057796,0.030481,0.004239,-0.010478,-0.025479,-0.03372,-0.038534,-0.041914,-0.04385,-0.044686,-0.044686,-0.044686,-0.044686,-0.044686,-0.04348,-0.040717,-0.037052,-0.03428,-0.029751,-0.026096,-0.023191,-0.021054,-0.019535,-0.018842,-0.018842]","[0.001544,0.001544,0.001544,0.001544,0.001544,0.001544,0.001544,0.001544,0.001544,0.001544,0.001544,0.001544,0.001544,0.001544,0.001544,0.001544,0.001544,0.001544,0.001544,0.031191,0.09013,0.163856,0.414343,0.592082,0.764589,0.943858,1.026021,1.07064,1.103151,1.113274,1.115358,1.090546,1.055313,0.990987,0.925412,0.851771,0.765751,0.679973,0.594747,0.508643,0.42709,0.340985,0.286115,0.223448,0.174306,0.146233,0.119748,0.102479,0.092582,0.088457,0.085451,0.083593,0.081722,0.079921,0.077865,0.075696,0.073626,0.071372,0.068082,0.06261,0.057151,0.050345,0.043327,0.036522]","[0.0004,0.0174,0.0328,0.0507,0.0663,0.0841,0.1007,0.1175,0.1337,0.1507,0.1675,0.184,0.201,0.2173,0.2338,0.2508,0.2672,0.2836,0.2999,0.3163,0.3339,0.351,0.3674,0.383,0.4015,0.4177,0.4333,0.4509,0.4666,0.4829,0.4999,0.5168,0.534,0.5502,0.5663,0.5828,0.6011,0.6168,0.6338,0.6512,0.6664,0.6827,0.7016,0.7174,0.7331,0.7509,0.7667,0.7833,0.8013,0.8164,0.8333,0.8494,0.8663,0.8834,0.8993,0.9174,0.9329,0.9495,0.9659,0.9845,1.0001,1.0175,1.0345,1.0511]","[1,1,1,1,1,1,1,1,1,1,1,1,1,1,1,1,1,1,1,1,1,1,1,1,1,2,2,2,2,2,2,2,2,2,2,2,2,2,2,2,2,2,2,2,2,2,2,2,2,2,2,2,2,2,2,2,2,2,2,2,2,2,2,2]",9,33.4757,4,17,0,17,0,1,,1,SV_6SxWlNLsoRj8nqK,304B,2022-06-01_13h57.00.033,implicit_time,2021.1.4,MacIntel,60.0024001
control,45,0,0,10,NA,0,NA,0,1,0.5,FALSE,practice,1,"[-0.012861,-0.012861,-0.012861,-0.012861,-0.012861,-0.012861,-0.012861,-0.012861,-0.012861,-0.012861,-0.012861,-0.011835,-0.0095,-0.001838,0.008198,0.02093,0.042643,0.072959,0.151506,0.221536,0.31177,0.434713,0.500043,0.555775,0.60845,0.630012,0.644595,0.651317,0.652703,0.652703,0.643722,0.630695,0.611488,0.574042,0.527235,0.447074,0.370521,0.292212,0.208301,0.164579,0.124285,0.086896,0.051986,0.021148,0.003346,-0.013915]","[-0.004553,-0.004553,-0.004553,-0.004553,-0.004553,-0.004553,-0.004553,-0.004553,-0.004553,-0.002865,0.01653,0.03811,0.069529,0.136365,0.221448,0.321802,0.418923,0.509508,0.620935,0.679136,0.720693,0.740712,0.740712,0.740712,0.733666,0.72825,0.722096,0.717177,0.713036,0.706245,0.699553,0.690621,0.68054,0.663356,0.642372,0.615079,0.58366,0.542742,0.465839,0.408247,0.348018,0.279565,0.203953,0.127248,0.077313,0.02559]","[0.0004,0.0166,0.0333,0.0487,0.0666,0.0832,0.0985,0.1161,0.1321,0.15,0.1654,0.1822,0.1998,0.2167,0.2328,0.2494,0.267,0.2822,0.3007,0.3162,0.332,0.3485,0.3667,0.3832,0.3999,0.4154,0.4333,0.4503,0.4662,0.4822,0.4998,0.5166,0.5318,0.549,0.5669,0.5824,0.5993,0.6155,0.6327,0.6487,0.666,0.6829,0.6992,0.7152,0.7326,0.75]","[1,1,1,1,1,1,1,1,1,1,1,1,1,1,1,1,1,1,1,1,1,1,1,1,1,2,2,2,2,2,2,2,2,2,2,2,2,2,2,2,2,2,2,2,2,2]",10,34.7421,4,18,0,18,0,1,,1,SV_6SxWlNLsoRj8nqK,304B,2022-06-01_13h57.00.033,implicit_time,2021.1.4,MacIntel,60.0024001
control,37.5,0,0,10,NA,0,NA,0,0,0.5,FALSE,practice,0,"[0.004666,0.004666,0.004666,0.004666,0.004666,0.004666,0.004666,0.004666,0.004666,0.004666,0.004666,0.004666,0.004666,0.004666,0.004666,0.004666,0.004666,0.004666,0.004666,0.004666,0.035646,0.11631,0.183967,0.323847,0.456056,0.539692,0.627486,0.663527,0.682383,0.694146,0.696833,0.691791,0.66421,0.602886,0.543357,0.424098,0.318863,0.208557,0.139362,0.065249,0.024813,-0.001676,-0.029495,-0.037651,-0.040423,-0.041695,-0.041695,-0.041695,-0.041695,-0.041695,-0.041695,-0.042265,-0.042265,-0.042265,-0.042265,-0.042265,-0.042265,-0.042265,-0.042265,-0.042265,-0.042265,-0.039986]","[0.01361,0.01361,0.01361,0.01361,0.01361,0.01361,0.01361,0.01361,0.01361,0.01361,0.01361,0.01361,0.01361,0.01361,0.01361,0.01361,0.01361,0.01361,0.01361,0.01446,0.056343,0.157618,0.234748,0.394522,0.530038,0.610358,0.698858,0.74308,0.769239,0.78509,0.790464,0.7894,0.758577,0.69011,0.634489,0.522736,0.421461,0.310459,0.230891,0.147963,0.105003,0.073413,0.04103,0.032807,0.028695,0.026824,0.026824,0.026824,0.026824,0.026824,0.026824,0.025987,0.025987,0.025987,0.025987,0.025987,0.024215,0.018742,0.011937,0.006464,0.001005,-0.003121]","[0.0003,0.0153,0.0332,0.0499,0.0665,0.0819,0.0998,0.1153,0.133,0.1492,0.1664,0.182,0.1998,0.2152,0.2317,0.2486,0.2652,0.2823,0.2997,0.3157,0.3323,0.349,0.3661,0.3821,0.3995,0.4163,0.4329,0.4497,0.466,0.4825,0.5005,0.5168,0.5325,0.5501,0.5652,0.5824,0.5996,0.6155,0.6325,0.6488,0.6658,0.6823,0.6991,0.7168,0.7334,0.7486,0.7653,0.7821,0.7985,0.8165,0.8337,0.85,0.8666,0.882,0.8996,0.9161,0.9328,0.9502,0.9656,0.982,1,1.016]","[1,1,1,1,1,1,1,1,1,1,1,1,1,1,1,1,1,1,1,1,1,1,1,1,1,1,1,2,2,2,2,2,2,2,2,2,2,2,2,2,2,2,2,2,2,2,2,2,2,2,2,2,2,2,2,2,2,2,2,2,2,2]",10,36.6246,4,19,0,19,0,1,,1,SV_6SxWlNLsoRj8nqK,304B,2022-06-01_13h57.00.033,implicit_time,2021.1.4,MacIntel,60.0024001
control,135,0,0,10,NA,0,NA,0,1,0.5,FALSE,practice,1,"[0.01866,0.01866,0.01866,0.01866,0.01866,0.01866,0.01866,0.01866,0.01866,0.01866,0.01866,0.01866,0.01866,0.01866,0.01866,0.01866,0.01866,0.01866,0.009252,-0.023381,-0.081049,-0.178034,-0.299771,-0.420615,-0.488936,-0.537139,-0.577158,-0.591456,-0.602878,-0.607113,-0.607749,-0.587592,-0.527047,-0.448424,-0.348952,-0.23969,-0.136088,-0.076093,-0.036407,0.000479]","[-0.01615,-0.01615,-0.01615,-0.01615,-0.01615,-0.01615,-0.01615,-0.01615,-0.01615,-0.01615,-0.01615,-0.01615,-0.01615,-0.01615,-0.01615,-0.01615,-0.006651,0.01266,0.051622,0.120188,0.200578,0.310998,0.439765,0.57796,0.667071,0.741095,0.803323,0.826122,0.841732,0.846709,0.842512,0.812412,0.73653,0.641224,0.520921,0.380018,0.24005,0.151181,0.086911,0.021861]","[0.0004,0.0165,0.0333,0.0499,0.0652,0.0832,0.0987,0.1164,0.1326,0.1495,0.166,0.1832,0.1997,0.2165,0.2335,0.2497,0.2665,0.282,0.2996,0.3156,0.3337,0.3498,0.367,0.3829,0.4006,0.4169,0.4329,0.4487,0.4654,0.483,0.4996,0.5151,0.5337,0.5491,0.566,0.5828,0.5991,0.6166,0.6326,0.6502]","[1,1,1,1,1,1,1,1,1,1,1,1,1,1,1,1,1,1,1,1,1,1,1,1,1,1,2,2,2,2,2,2,2,2,2,2,2,2,2,2]",11,37.7923,4,20,0,20,0,1,,1,SV_6SxWlNLsoRj8nqK,304B,2022-06-01_13h57.00.033,implicit_time,2021.1.4,MacIntel,60.0024001
control,142.5,0,0,10,NA,0,NA,0,0,0.5,FALSE,practice,0,"[0.012318,0.012318,0.012318,0.012318,0.012318,0.012318,0.012318,0.012318,0.012318,0.012318,0.012318,0.012318,0.012318,0.012318,0.012318,0.012318,0.012318,0.012318,0.00835,-0.017769,-0.072134,-0.225221,-0.346265,-0.515397,-0.623225,-0.697974,-0.735685,-0.765013,-0.774109,-0.776397,-0.746632,-0.667202,-0.51328,-0.338973,-0.206432,-0.052804,0.026569,0.078133,0.122662,0.139562,0.153044,0.160221,0.162301,0.163544,0.164798,0.164798,0.164798,0.164798,0.164798,0.164798,0.164798,0.164798,0.164798,0.161921,0.154126,0.1411,0.125206,0.108354,0.097796,0.084836,0.074554,0.062828,0.051321,0.042206,0.030623]","[0.002395,0.002395,0.002395,0.002395,0.002395,0.002395,0.002395,0.002395,0.002395,0.002395,0.002395,0.002395,0.002395,0.002395,0.002395,0.002395,0.002395,0.002395,0.003245,0.024683,0.081155,0.23479,0.355646,0.525529,0.621573,0.684538,0.711477,0.731582,0.735707,0.735707,0.719729,0.666362,0.550823,0.410218,0.30157,0.18484,0.123888,0.083239,0.050005,0.036479,0.02396,0.015935,0.011795,0.009937,0.008066,0.008066,0.008066,0.008066,0.008066,0.009852,0.013837,0.01473,0.01473,0.01473,0.01205,0.004663,-0.001632,-0.006651,-0.009416,-0.010933,-0.012266,-0.012266,-0.012266,-0.012266,-0.012266]","[0.0003,0.015,0.0326,0.049,0.0663,0.0828,0.0994,0.1164,0.1328,0.1497,0.1651,0.1831,0.1991,0.216,0.2328,0.249,0.2659,0.2828,0.3002,0.3152,0.3334,0.3501,0.3671,0.3828,0.4003,0.4166,0.4322,0.4486,0.4657,0.4832,0.4982,0.5156,0.5329,0.5488,0.5649,0.5824,0.5991,0.6159,0.6315,0.6492,0.6665,0.6827,0.6999,0.7158,0.7329,0.7493,0.7659,0.7827,0.799,0.8164,0.8323,0.8486,0.8663,0.8826,0.8992,0.9156,0.9319,0.949,0.9665,0.983,0.9985,1.0166,1.0316,1.0485,1.0667]","[1,1,1,1,1,1,1,1,1,1,1,1,1,1,1,1,1,1,1,1,1,1,1,1,1,2,2,2,2,2,2,2,2,2,2,2,2,2,2,2,2,2,2,2,2,2,2,2,2,2,2,2,2,2,2,2,2,2,2,2,2,2,2,2,2]",11,39.8757,4,21,0,21,0,1,,1,SV_6SxWlNLsoRj8nqK,304B,2022-06-01_13h57.00.033,implicit_time,2021.1.4,MacIntel,60.0024001
control,105,0,0,10,NA,0,NA,0,1,0.5,FALSE,practice,1,"[0.005397,0.005397,0.005397,0.005397,0.005397,0.005397,0.005397,0.005397,0.005397,0.005397,0.005397,0.005397,0.005397,0.005397,0.005397,0.005397,0.005397,0.004296,0.000393,-0.002901,-0.007088,-0.011892,-0.022042,-0.035059,-0.044325,-0.047088,-0.051759,-0.052936,-0.053563,-0.053563,-0.053563,-0.053563,-0.048636,-0.029485,-0.016488,-0.000281,0.006992,0.012109,0.017863,0.023702,0.027984,0.030652]","[-0.001873,-0.001873,-0.001873,-0.001873,-0.001873,-0.001873,-0.001873,-0.001873,-0.001873,-0.001873,-0.001873,-0.001873,-0.001873,-0.001873,-0.001873,-0.001873,-0.001873,0.012929,0.055577,0.135883,0.276318,0.469922,0.689784,0.921556,1.070668,1.122717,1.18659,1.210948,1.216846,1.208467,1.155539,1.034826,0.928078,0.731738,0.626138,0.429429,0.326084,0.239299,0.181579,0.122527,0.066891,0.020911]","[0.0004,0.0168,0.0323,0.05,0.0661,0.0834,0.0998,0.117,0.132,0.1489,0.1668,0.1829,0.199,0.2164,0.2327,0.2493,0.2664,0.2823,0.3003,0.317,0.333,0.3498,0.3668,0.3831,0.4003,0.4155,0.4329,0.4496,0.4657,0.4835,0.5003,0.5162,0.5336,0.5491,0.5664,0.5836,0.5998,0.6154,0.6333,0.6497,0.6669,0.683]","[1,1,1,1,1,1,1,1,1,1,1,1,1,1,1,1,1,1,1,1,1,1,1,1,2,2,2,2,2,2,2,2,2,2,2,2,2,2,2,2,2,2]",12,41.0747,4,22,0,22,0,1,,1,SV_6SxWlNLsoRj8nqK,304B,2022-06-01_13h57.00.033,implicit_time,2021.1.4,MacIntel,60.0024001
control,112.5,0,0,10,NA,0,NA,0,0,0.5,FALSE,practice,0,"[0.002406,0.002406,0.002406,0.002406,0.002406,0.002406,0.002406,0.002406,0.002406,0.002406,0.002406,0.002406,0.002406,0.002406,0.002406,0.002406,0.002406,0.002406,0.002406,0.002406,0.002406,0.002406,-0.008883,-0.032676,-0.112988,-0.198333,-0.285966,-0.325928,-0.340587,-0.359851,-0.366943,-0.369241,-0.369241,-0.369241,-0.358636,-0.329725,-0.278494,-0.223427,-0.185649,-0.15483,-0.122654,-0.099715,-0.084087,-0.077014,-0.068279,-0.065241,-0.063855,-0.063238,-0.062611,-0.062611,-0.061985,-0.061358,-0.060665,-0.060038,-0.058662,-0.056449,-0.053677,-0.050012,-0.045474,-0.038847,-0.031099]","[0.015183,0.015183,0.015183,0.015183,0.015183,0.015183,0.015183,0.015183,0.015183,0.015183,0.015183,0.015183,0.015183,0.015183,0.015183,0.015183,0.015183,0.015183,0.015183,0.015183,0.015183,0.016871,0.051933,0.103018,0.294552,0.509806,0.738798,0.854876,0.896616,0.95211,0.971945,0.977858,0.977858,0.952564,0.875533,0.764135,0.614512,0.453419,0.340574,0.256696,0.168861,0.109611,0.070677,0.052501,0.029362,0.022343,0.018203,0.01636,0.014489,0.01361,0.012674,0.010802,0.007797,0.004791,0.000665,-0.004808,-0.008948,-0.013286,-0.015541,-0.016774,-0.016774]","[0.0003,0.0162,0.0331,0.0497,0.0656,0.0824,0.1,0.1169,0.1332,0.1492,0.1672,0.1822,0.199,0.2169,0.2337,0.25,0.2656,0.2832,0.2995,0.3156,0.3332,0.3493,0.3655,0.3824,0.3998,0.4167,0.4322,0.4497,0.466,0.4833,0.4997,0.5168,0.5336,0.5505,0.5675,0.5823,0.6008,0.6158,0.6332,0.6493,0.6665,0.684,0.6995,0.716,0.7334,0.7495,0.767,0.7822,0.7995,0.8165,0.8336,0.85,0.8657,0.8827,0.9009,0.9177,0.9335,0.949,0.9659,0.9826,0.9989]","[1,1,1,1,1,1,1,1,1,1,1,1,1,1,1,1,1,1,1,1,1,1,1,1,1,1,1,1,2,2,2,2,2,2,2,2,2,2,2,2,2,2,2,2,2,2,2,2,2,2,2,2,2,2,2,2,2,2,2,2,2]",12,42.9406,4,23,0,23,0,1,,1,SV_6SxWlNLsoRj8nqK,304B,2022-06-01_13h57.00.033,implicit_time,2021.1.4,MacIntel,60.0024001
control,75,0,0,10,NA,0,NA,0,1,0.5,FALSE,practice,1,"[-0.006756,-0.006756,-0.006756,-0.006756,-0.006756,-0.006756,-0.006756,-0.006756,-0.006756,-0.006756,-0.006756,-0.006756,-0.006756,-0.006756,-0.006756,-0.006756,-0.006756,-0.006756,-0.006756,-0.006756,-0.006756,-0.006756,-0.004439,0.024481,0.057141,0.091017,0.148971,0.202272,0.261042,0.290474,0.318132,0.329648,0.339209,0.340728,0.340728,0.337842,0.330417,0.314837,0.296931,0.273688,0.237809,0.198028,0.14991,0.109588,0.070538,0.048321,0.023104,0.003327,-0.010876,-0.019317]","[0.018643,0.018643,0.018643,0.018643,0.018643,0.018643,0.018643,0.018643,0.018643,0.018643,0.018643,0.018643,0.018643,0.018643,0.018643,0.018643,0.018643,0.018643,0.018643,0.018643,0.018643,0.018643,0.039485,0.13404,0.223533,0.311367,0.446727,0.581944,0.730476,0.81434,0.894234,0.929935,0.963155,0.970201,0.971137,0.971137,0.959951,0.924831,0.879574,0.819416,0.73368,0.634787,0.505751,0.399683,0.305398,0.24626,0.171087,0.10954,0.05657,0.028539]","[0.0004,0.0152,0.0331,0.0494,0.0666,0.0825,0.0997,0.1152,0.1331,0.1498,0.165,0.1826,0.1991,0.2152,0.2332,0.2484,0.2651,0.283,0.3,0.3154,0.3332,0.3485,0.3664,0.3833,0.3985,0.4153,0.4331,0.4501,0.4657,0.4819,0.4989,0.5163,0.5331,0.5495,0.567,0.5818,0.5999,0.616,0.6316,0.6497,0.6653,0.6828,0.6985,0.7153,0.7335,0.7482,0.7668,0.783,0.7985,0.8153]","[1,1,1,1,1,1,1,1,1,1,1,1,1,1,1,1,1,1,1,1,1,1,1,1,1,1,1,1,1,1,1,2,2,2,2,2,2,2,2,2,2,2,2,2,2,2,2,2,2,2]",13,44.2739,4,24,0,24,0,1,,1,SV_6SxWlNLsoRj8nqK,304B,2022-06-01_13h57.00.033,implicit_time,2021.1.4,MacIntel,60.0024001
control,67.5,0,0,10,NA,0,NA,0,0,0.5,FALSE,practice,0,"[-0.010193,-0.010193,-0.010193,-0.010193,-0.010193,-0.010193,-0.010193,-0.010193,-0.010193,-0.010193,-0.010193,-0.010193,-0.010193,-0.010193,-0.010193,-0.010193,-0.010193,-0.004942,0.009603,0.032826,0.079719,0.133039,0.167285,0.206032,0.226843,0.247512,0.255326,0.26108,0.262798,0.263558,0.262295,0.256133,0.233537,0.214681,0.204712,0.168861,0.137577,0.10729,0.07989,0.05678,0.041067,0.024243,0.015024,0.006755,0.002662,0.000631,0.000631,0.018736,0.055204,0.111734,0.177615,0.225514,0.280543,0.312217,0.33975,0.35647,0.363553,0.366591,0.367844,0.367844,0.367844,0.364122,0.351086,0.331832,0.308191,0.284094,0.25676,0.226074,0.198968,0.180454,0.163791,0.15179,0.143179,0.138327,0.134587,0.130865,0.124798,0.118237,0.110775,0.102705,0.096609,0.092033,0.089242,0.08721,0.085947,0.084684,0.082652,0.079861,0.076177,0.069417,0.060312,0.051198,0.035143,0.024965,0.016904]","[-0.015144,-0.015144,-0.015144,-0.015144,-0.015144,-0.015144,-0.015144,-0.015144,-0.015144,-0.015144,-0.015144,-0.015144,-0.015144,-0.015144,-0.015144,-0.015144,-0.015144,-0.002511,0.039088,0.099275,0.224242,0.361331,0.460508,0.585248,0.664235,0.748737,0.787486,0.819047,0.830716,0.834133,0.830376,0.812001,0.736005,0.665908,0.626237,0.501015,0.404957,0.317223,0.237966,0.161588,0.112957,0.064779,0.039953,0.019607,0.012178,0.011242,0.018175,0.084558,0.193532,0.342162,0.507381,0.636942,0.794249,0.885727,0.965111,1.010666,1.028885,1.035932,1.037832,1.037832,1.037832,1.023384,0.980041,0.910539,0.815644,0.713476,0.599766,0.490963,0.396677,0.336306,0.275425,0.23177,0.196254,0.17717,0.161843,0.146573,0.130141,0.117579,0.105017,0.095673,0.087946,0.083409,0.080304,0.078333,0.076476,0.074619,0.072648,0.070578,0.068409,0.063489,0.059391,0.054046,0.04707,0.040236,0.033573]","[0.0003,0.0145,0.0321,0.0493,0.0659,0.0812,0.0992,0.1162,0.1327,0.1488,0.1646,0.1822,0.1978,0.2159,0.2313,0.249,0.2648,0.282,0.2981,0.3149,0.3323,0.3494,0.3664,0.3823,0.3985,0.4147,0.4328,0.4489,0.4652,0.4829,0.4989,0.5153,0.5312,0.5486,0.5655,0.5827,0.5978,0.6155,0.6325,0.649,0.6649,0.6815,0.6985,0.7164,0.7323,0.7494,0.766,0.7826,0.7987,0.8149,0.8318,0.8481,0.8649,0.8819,0.8982,0.9147,0.9329,0.9486,0.9663,0.9827,0.9978,1.0146,1.0314,1.0489,1.066,1.0828,1.0996,1.1148,1.1317,1.149,1.1664,1.1816,1.1985,1.2153,1.2326,1.2483,1.2663,1.2819,1.2977,1.3162,1.3332,1.3498,1.3661,1.3829,1.3998,1.4167,1.433,1.4489,1.4654,1.4826,1.4991,1.5157,1.5328,1.549,1.5657]","[1,1,1,1,1,1,1,1,1,1,1,1,1,1,1,1,1,1,1,1,1,1,1,1,1,1,1,1,1,1,1,1,1,1,1,1,1,1,1,1,1,1,1,1,1,1,1,1,1,1,1,1,1,1,2,2,2,2,2,2,2,2,2,2,2,2,2,2,2,2,2,2,2,2,2,2,2,2,2,2,2,2,2,2,2,2,2,2,2,2,2,2,2,2,2]",13,46.7083,4,25,0,25,0,1,,1,SV_6SxWlNLsoRj8nqK,304B,2022-06-01_13h57.00.033,implicit_time,2021.1.4,MacIntel,60.0024001
control,105,0,0,10,NA,0,NA,0,1,0.5,FALSE,practice,1,"[0.003526,0.003526,0.003526,0.003526,0.003526,0.003526,0.003526,0.003526,0.003526,0.003526,0.003526,0.003526,0.003526,0.003526,0.003526,0.003526,0.003526,0.003526,0.003526,-0.00142,-0.015814,-0.041781,-0.077954,-0.115704,-0.134484,-0.149428,-0.154574,-0.154574,-0.154574,-0.154574,-0.154574,-0.155409,-0.15708,-0.157783,-0.157783,-0.157783,-0.157783,-0.157783,-0.156349,-0.148241,-0.127154,-0.110966,-0.093724,-0.081609,-0.071545,-0.065697,-0.061747,-0.058082,-0.05343,-0.046566,-0.041933,-0.037128,-0.033558,-0.031223,-0.027719,-0.025488,-0.023428,-0.023428,-0.023428,-0.023428,-0.023428]","[0.014957,0.014957,0.014957,0.014957,0.014957,0.014957,0.014957,0.014957,0.014957,0.014957,0.014957,0.014957,0.014957,0.014957,0.014957,0.014957,0.014957,0.01748,0.049084,0.086188,0.17958,0.301811,0.464067,0.64379,0.772628,0.918692,0.999125,1.076155,1.109503,1.130983,1.146323,1.157992,1.168115,1.173617,1.175516,1.175516,1.174666,1.152888,1.104072,1.029353,0.891058,0.793654,0.679122,0.601043,0.518298,0.459203,0.413479,0.377168,0.345891,0.301385,0.270222,0.23608,0.201939,0.170549,0.139158,0.11066,0.088272,0.066622,0.04724,0.0356,0.025704]","[0.0004,0.0169,0.0335,0.0493,0.0672,0.0826,0.1004,0.1175,0.1337,0.1503,0.166,0.1836,0.2003,0.2171,0.2334,0.2499,0.2674,0.2845,0.2994,0.3178,0.3344,0.3508,0.3673,0.3827,0.4001,0.4159,0.4327,0.4495,0.4658,0.4831,0.5001,0.5165,0.5339,0.5506,0.5668,0.5839,0.6005,0.6158,0.6343,0.6501,0.6673,0.6855,0.6995,0.7162,0.7325,0.7505,0.767,0.7829,0.7994,0.8168,0.8336,0.8496,0.8669,0.8835,0.8999,0.9169,0.9327,0.95,0.9668,0.984,1.0014]","[1,1,1,1,1,1,1,1,1,1,1,1,1,1,1,1,1,1,1,1,1,1,1,1,1,1,2,2,2,2,2,2,2,2,2,2,2,2,2,2,2,2,2,2,2,2,2,2,2,2,2,2,2,2,2,2,2,2,2,2,2]",14,48.2261,4,26,0,26,0,1,,1,SV_6SxWlNLsoRj8nqK,304B,2022-06-01_13h57.00.033,implicit_time,2021.1.4,MacIntel,60.0024001
control,97.5,0,0,10,NA,0,NA,0,0,0.5,FALSE,practice,0,"[0.010381,0.010381,0.010381,0.010381,0.010381,0.010381,0.010381,0.010381,0.010381,0.010381,0.010381,0.010381,0.010381,0.010381,0.010381,0.010381,0.010381,0.010381,0.010381,0.010381,0.010381,0.005444,-0.005066,-0.016174,-0.035163,-0.054095,-0.072827,-0.086005,-0.091227,-0.096516,-0.099326,-0.100161,-0.100788,-0.100788,-0.102431,-0.102431,-0.09812,-0.062307,-0.038913,-0.011323,0.007647,0.018395,0.030177,0.037573,0.043972,0.046014,0.04908,0.050998,0.052774,0.052774,0.052774,0.052774,0.052774,0.052774,0.052774,0.052774,0.052774,0.052774,0.051245,0.048264,0.04458,0.038997,0.033386,0.027775,0.022164]","[0.008463,0.008463,0.008463,0.008463,0.008463,0.008463,0.008463,0.008463,0.008463,0.008463,0.008463,0.008463,0.008463,0.008463,0.008463,0.008463,0.008463,0.008463,0.008463,0.008463,0.014389,0.08874,0.182969,0.287916,0.466902,0.72177,0.972442,1.212933,1.300101,1.383313,1.437048,1.455168,1.457252,1.410861,1.32823,1.196784,1.009617,0.762292,0.648497,0.505836,0.392225,0.327374,0.23876,0.179297,0.136663,0.114389,0.092894,0.075625,0.062326,0.050686,0.039102,0.029206,0.020855,0.012518,0.005712,-0.001093,-0.009969,-0.016718,-0.023523,-0.027848,-0.031052,-0.033405,-0.033405,-0.033405,-0.032257]","[0.0003,0.0165,0.0331,0.0486,0.0665,0.0823,0.1001,0.1156,0.1335,0.1496,0.1667,0.1819,0.1989,0.2169,0.2334,0.2495,0.2656,0.2839,0.2989,0.3165,0.3321,0.3495,0.3657,0.3822,0.4001,0.4173,0.4334,0.4499,0.4656,0.4838,0.5001,0.5161,0.5329,0.5488,0.5655,0.5829,0.5989,0.6159,0.6332,0.6492,0.6674,0.6833,0.7,0.7156,0.7322,0.7489,0.7668,0.7841,0.8001,0.817,0.8331,0.8492,0.8669,0.8836,0.8995,0.9163,0.9335,0.9501,0.967,0.9828,0.9998,1.0156,1.0331,1.0496,1.0652]","[1,1,1,1,1,1,1,1,1,1,1,1,1,1,1,1,1,1,1,1,1,1,1,1,1,1,2,2,2,2,2,2,2,2,2,2,2,2,2,2,2,2,2,2,2,2,2,2,2,2,2,2,2,2,2,2,2,2,2,2,2,2,2,2,2]",14,50.1735,4,27,0,27,0,1,,1,SV_6SxWlNLsoRj8nqK,304B,2022-06-01_13h57.00.033,implicit_time,2021.1.4,MacIntel,60.0024001
control,135,0,0,10,NA,0,NA,0,1,0.5,FALSE,practice,1,"[0.001485,0.001485,0.001485,0.001485,0.001485,0.001485,0.001485,0.001485,0.001485,0.001485,0.001485,0.001485,0.001485,0.001485,0.001485,0.001485,0.001485,0.001485,0.001485,0.001485,0.001485,-0.009405,-0.074935,-0.175062,-0.31425,-0.471742,-0.564578,-0.633108,-0.671722,-0.699521,-0.709044,-0.711959,-0.711959,-0.710079,-0.698372,-0.672519,-0.618952,-0.568281,-0.419675,-0.399756,-0.322443,-0.273661,-0.207039,-0.17774,-0.156738,-0.140389,-0.13061,-0.119653,-0.112476,-0.107709,-0.104956,-0.102943,-0.10169,-0.101063,-0.100437,-0.099183,-0.09793,-0.094265,-0.091493,-0.087828,-0.08328,-0.074375,-0.068792,-0.062165,-0.055538,-0.047743,-0.039948,-0.0354,-0.031736]","[-0.001887,-0.001887,-0.001887,-0.001887,-0.001887,-0.001887,-0.001887,-0.001887,-0.001887,-0.001887,-0.001887,-0.001887,-0.001887,-0.001887,-0.001887,-0.001887,-0.001887,-0.001887,-0.001887,-0.001887,-0.001887,0.011724,0.078929,0.186924,0.326793,0.47799,0.570432,0.634191,0.667921,0.687813,0.696476,0.69856,0.69951,0.69951,0.69951,0.679803,0.616596,0.55156,0.378132,0.357545,0.276446,0.232167,0.169202,0.140051,0.117905,0.096978,0.085266,0.073399,0.065374,0.059391,0.056315,0.054344,0.052472,0.051551,0.049679,0.047808,0.045936,0.041598,0.038492,0.036323,0.034069,0.031701,0.030581,0.030581,0.029348,0.028015,0.025448,0.023194,0.02206]","[0.0002,0.0176,0.0329,0.0499,0.0674,0.0846,0.1001,0.1165,0.1344,0.1508,0.1679,0.1831,0.2009,0.2172,0.2342,0.2498,0.2667,0.2832,0.3002,0.3174,0.3344,0.3496,0.3673,0.3847,0.4005,0.4175,0.4349,0.451,0.4662,0.4832,0.4997,0.517,0.5347,0.55,0.5667,0.5833,0.5994,0.6167,0.6333,0.6498,0.6664,0.6841,0.7011,0.7171,0.733,0.7507,0.7679,0.7832,0.8007,0.8179,0.8331,0.8507,0.8678,0.8844,0.8999,0.9179,0.9339,0.9501,0.9666,0.9844,1,1.0169,1.0339,1.0509,1.066,1.0835,1.1008,1.1162,1.1344]","[1,1,1,1,1,1,1,1,1,1,1,1,1,1,1,1,1,1,1,1,1,1,1,1,1,1,1,1,1,2,2,2,2,2,2,2,2,2,2,2,2,2,2,2,2,2,2,2,2,2,2,2,2,2,2,2,2,2,2,2,2,2,2,2,2,2,2,2,2]",15,51.8251,4,28,0,28,0,1,,1,SV_6SxWlNLsoRj8nqK,304B,2022-06-01_13h57.00.033,implicit_time,2021.1.4,MacIntel,60.0024001
control,142.5,0,0,10,NA,0,NA,0,0,0.5,FALSE,practice,0,"[-0.020893,-0.020893,-0.020893,-0.020893,-0.020893,-0.020893,-0.020893,-0.020893,-0.020893,-0.020893,-0.020893,-0.020893,-0.020893,-0.020893,-0.020893,-0.020893,-0.020893,-0.020893,-0.020893,-0.020893,-0.020893,-0.0523,-0.141063,-0.373789,-0.538573,-0.736578,-0.783299,-0.831151,-0.864524,-0.876657,-0.878946,-0.876249,-0.845459,-0.781277,-0.702597,-0.58895,-0.447152,-0.297767,-0.201561,-0.10225,-0.036293,-0.007506,0.012537,0.025867,0.033291,0.033918,0.033918,0.033918,0.033918,0.033918,0.033918,0.034535,0.035162,0.035788,0.037042,0.03763,0.038883,0.038883,0.038883,0.037915,0.033557,0.028174,0.023816]","[0.012688,0.012688,0.012688,0.012688,0.012688,0.012688,0.012688,0.012688,0.012688,0.012688,0.012688,0.012688,0.012688,0.012688,0.012688,0.012688,0.012688,0.012688,0.012688,0.012688,0.012688,0.03397,0.124583,0.366733,0.532703,0.737721,0.785374,0.828773,0.857201,0.865027,0.866176,0.862149,0.834955,0.787501,0.737551,0.652552,0.548541,0.429046,0.344119,0.249734,0.180317,0.143879,0.116898,0.095446,0.084359,0.082488,0.082488,0.082488,0.084302,0.086202,0.088102,0.089052,0.090952,0.092838,0.092838,0.092838,0.092838,0.086032,0.077695,0.064113,0.052486,0.040463,0.030156]","[0.0004,0.016,0.0332,0.0496,0.0661,0.0827,0.0997,0.1166,0.1323,0.1484,0.1664,0.183,0.1996,0.2165,0.2321,0.2484,0.2662,0.282,0.2982,0.3153,0.3322,0.3494,0.3653,0.3821,0.3997,0.4164,0.4332,0.4492,0.4663,0.4818,0.4986,0.5165,0.5332,0.5486,0.5653,0.5835,0.6002,0.6153,0.6332,0.6502,0.6662,0.6821,0.6991,0.7153,0.732,0.749,0.7663,0.7827,0.7986,0.8151,0.8334,0.8488,0.8659,0.883,0.9003,0.9154,0.932,0.9503,0.9648,0.9833,0.9995,1.0151,1.032]","[1,1,1,1,1,1,1,1,1,1,1,1,1,1,1,1,1,1,1,1,1,1,1,1,1,2,2,2,2,2,2,2,2,2,2,2,2,2,2,2,2,2,2,2,2,2,2,2,2,2,2,2,2,2,2,2,2,2,2,2,2,2,2]",15,53.374,4,29,0,29,0,1,,1,SV_6SxWlNLsoRj8nqK,304B,2022-06-01_13h57.00.033,implicit_time,2021.1.4,MacIntel,60.0024001
control,45,0,0,10,NA,0,NA,0,1,0.5,FALSE,practice,1,"[0.017626,0.017626,0.017626,0.017626,0.017626,0.017626,0.017626,0.017626,0.017626,0.017626,0.017626,0.017626,0.017626,0.017626,0.017626,0.017626,0.017626,0.017626,0.017626,0.017626,0.017626,0.017626,0.028573,0.064556,0.118114,0.238246,0.382902,0.534565,0.63099,0.721537,0.784352,0.80185,0.823269,0.839267,0.842714,0.845334,0.845334,0.842011,0.828985,0.809778,0.776586,0.738817,0.687301,0.597579,0.502018,0.39871,0.322385,0.238949,0.178403,0.140198,0.122215,0.102135,0.092821,0.089109,0.08758,0.086877,0.086877,0.086877,0.086877,0.086877,0.086877,0.086877,0.086877,0.087504,0.088131,0.089336,0.089925,0.089925,0.089925,0.089925,0.079377,0.066351,0.050305,0.038665,0.029551,0.023939,0.021908,0.021271,0.021271,0.021271,0.021271,0.021271,0.021271,0.02186,0.02186,0.02186,0.02186,0.02186,0.02186,0.02186,0.02186,0.02186,0.02186,0.02186,0.02186,0.02186,0.02186,0.02186,0.02186,0.02186,0.021167,0.019695]","[0.010618,0.010618,0.010618,0.010618,0.010618,0.010618,0.010618,0.010618,0.010618,0.010618,0.010618,0.010618,0.010618,0.010618,0.010618,0.010618,0.010618,0.010618,0.010618,0.010618,0.010618,0.010618,0.036153,0.09729,0.155817,0.279055,0.39689,0.518341,0.605296,0.710059,0.79863,0.827157,0.863056,0.900756,0.912425,0.924094,0.928262,0.929212,0.927681,0.915856,0.890179,0.856322,0.807648,0.719247,0.636261,0.543692,0.467172,0.365613,0.284017,0.21151,0.165643,0.109143,0.079326,0.063701,0.056726,0.05372,0.052784,0.052784,0.052784,0.053649,0.056669,0.057562,0.059448,0.061348,0.062298,0.064127,0.064127,0.06502,0.06502,0.06502,0.06502,0.060511,0.055804,0.052968,0.048857,0.046489,0.045454,0.045454,0.044575,0.044575,0.044575,0.043724,0.042788,0.041909,0.041909,0.041909,0.041909,0.041909,0.041909,0.041909,0.041909,0.041909,0.041909,0.041909,0.041909,0.041909,0.041909,0.041909,0.041909,0.041909,0.03733,0.031857]","[0.0004,0.0163,0.0331,0.0509,0.0661,0.083,0.1009,0.1164,0.1344,0.1497,0.1672,0.1828,0.2009,0.2164,0.2343,0.2498,0.2664,0.2836,0.3008,0.3165,0.3344,0.3499,0.3681,0.3843,0.4009,0.4161,0.4334,0.4511,0.4673,0.4834,0.5003,0.5168,0.5329,0.5498,0.5676,0.584,0.6005,0.6176,0.6337,0.651,0.6677,0.6844,0.7011,0.7167,0.7342,0.7514,0.7669,0.7831,0.7998,0.8163,0.8331,0.8498,0.8667,0.8833,0.8997,0.9172,0.9343,0.9507,0.9673,0.9829,0.9998,1.0177,1.0331,1.0496,1.0662,1.0833,1.0997,1.1164,1.133,1.1498,1.1667,1.1841,1.1996,1.2162,1.2329,1.2505,1.2661,1.2844,1.3009,1.3162,1.3328,1.3498,1.3667,1.3842,1.4009,1.4164,1.4344,1.4511,1.4672,1.4843,1.5009,1.5172,1.5341,1.5509,1.5672,1.583,1.6004,1.6163,1.6343,1.6503,1.6678,1.6847]","[1,1,1,1,1,1,1,1,1,1,1,1,1,1,1,1,1,1,1,1,1,1,1,1,1,1,1,1,1,2,2,2,2,2,2,2,2,2,2,2,2,2,2,2,2,2,2,2,2,2,2,2,2,2,2,2,2,2,2,2,2,2,2,2,2,2,2,2,2,2,2,2,2,2,2,2,2,2,2,2,2,2,2,2,2,2,2,2,2,2,2,2,2,2,2,2,2,2,2,2,2,2]",16,55.5756,4,30,0,30,0,1,,1,SV_6SxWlNLsoRj8nqK,304B,2022-06-01_13h57.00.033,implicit_time,2021.1.4,MacIntel,60.0024001
control,52.5,0,0,10,NA,0,NA,0,0,0.5,FALSE,practice,0,"[0.009736,0.009736,0.009736,0.009736,0.009736,0.009736,0.009736,0.009736,0.009736,0.009736,0.009736,0.009736,0.009736,0.009736,0.009736,0.009736,0.009736,0.009736,0.015765,0.050827,0.094919,0.184517,0.284474,0.440865,0.575514,0.657355,0.703916,0.727509,0.745634,0.746327,0.714388,0.63774,0.519516,0.34576,0.248842,0.126621,0.021195,-0.082265,-0.113102,-0.170638,-0.188222,-0.20178,-0.208615,-0.210078,-0.210714,-0.210714,-0.210714,-0.211416,-0.212119,-0.212755,-0.212755,-0.212755,-0.212755,-0.212755,-0.212755,-0.206831,-0.183959,-0.157916,-0.123375,-0.074669,-0.04987,-0.036919,-0.027634,-0.022469,-0.02039,-0.019763,-0.019763,-0.019763,-0.02263,-0.025412,-0.028204,-0.030986,-0.033017,-0.034403,-0.035106,-0.035106,-0.035106]","[0.013922,0.013922,0.013922,0.013922,0.013922,0.013922,0.013922,0.013922,0.013922,0.013922,0.013922,0.013922,0.013922,0.013922,0.013922,0.013922,0.013922,0.013922,0.05138,0.132381,0.226893,0.382187,0.541919,0.772457,0.969379,1.090149,1.170554,1.209899,1.24472,1.246805,1.200598,1.089341,0.91458,0.629215,0.464166,0.260892,0.095815,-0.048604,-0.091763,-0.172466,-0.200751,-0.224301,-0.238905,-0.244363,-0.246235,-0.250361,-0.253367,-0.257492,-0.261633,-0.263504,-0.265376,-0.265376,-0.265376,-0.265376,-0.265376,-0.258797,-0.238026,-0.216404,-0.186289,-0.137063,-0.102141,-0.080094,-0.061578,-0.051355,-0.047187,-0.046237,-0.046237,-0.046237,-0.046237,-0.045202,-0.043103,-0.041019,-0.03902,-0.035901,-0.031732,-0.024898,-0.018065]","[0.0003,0.0171,0.033,0.0498,0.0662,0.0842,0.0995,0.1174,0.1333,0.1505,0.1676,0.1842,0.2011,0.216,0.2341,0.2504,0.2666,0.2839,0.3001,0.3165,0.3332,0.3508,0.3669,0.3842,0.4004,0.4173,0.4329,0.451,0.4666,0.4832,0.5008,0.5183,0.5345,0.5509,0.5673,0.5829,0.5998,0.6173,0.6339,0.6506,0.6665,0.6839,0.6999,0.7178,0.7334,0.7507,0.7675,0.7848,0.8007,0.8181,0.833,0.8496,0.8678,0.8842,0.8995,0.9171,0.9339,0.95,0.9672,0.9843,0.9995,1.0176,1.0341,1.0498,1.0673,1.083,1.1006,1.1159,1.1348,1.1498,1.1679,1.1841,1.201,1.2173,1.2328,1.2497,1.2668]","[1,1,1,1,1,1,1,1,1,1,1,1,1,1,1,1,1,1,1,1,1,1,1,1,2,2,2,2,2,2,2,2,2,2,2,2,2,2,2,2,2,2,2,2,2,2,2,2,2,2,2,2,2,2,2,2,2,2,2,2,2,2,2,2,2,2,2,2,2,2,2,2,2,2,2,2,2]",16,57.3577,4,31,0,31,0,1,,1,SV_6SxWlNLsoRj8nqK,304B,2022-06-01_13h57.00.033,implicit_time,2021.1.4,MacIntel,60.0024001
control,75,0,0,10,NA,0,NA,0,1,0.5,FALSE,baseline,1,"[-0.008569,-0.008569,-0.008569,-0.008569,-0.008569,-0.008569,-0.008569,-0.008569,-0.008569,-0.008569,-0.008569,-0.008569,-0.008569,-0.008569,-0.008569,-0.008569,-0.008569,-0.008569,-0.008569,-0.008569,-0.002294,0.009479,0.025326,0.056448,0.095014,0.133884,0.180815,0.201788,0.21338,0.219751,0.221403,0.211529,0.173115,0.120611,0.069132,0.019714,-0.006386,-0.029058,-0.046832,-0.058624,-0.07015,-0.075789,-0.081296,-0.086518,-0.090648,-0.094921,-0.098785,-0.101756,-0.104662,-0.106456,-0.10826,-0.10826,-0.10826,-0.10826,-0.102402,-0.087638,-0.074232,-0.058367,-0.043195,-0.029229,-0.017418,-0.010383,-0.00461,-0.001059]","[0.000892,0.000892,0.000892,0.000892,0.000892,0.000892,0.000892,0.000892,0.000892,0.000892,0.000892,0.000892,0.000892,0.000892,0.000892,0.000892,0.000892,0.000892,0.000892,0.000892,0.070067,0.194212,0.362735,0.626181,0.84919,1.040894,1.240042,1.326841,1.365803,1.390104,1.395067,1.342891,1.203036,1.001238,0.78631,0.537354,0.378302,0.243113,0.144843,0.088145,0.032056,0.005003,-0.021283,-0.045556,-0.067065,-0.090997,-0.108451,-0.127875,-0.145144,-0.158486,-0.17187,-0.178661,-0.185467,-0.189607,-0.19301,-0.194243,-0.18317,-0.164483,-0.140054,-0.113938,-0.086007,-0.066271,-0.048973,-0.035475]","[0.0003,0.0178,0.0342,0.051,0.0665,0.084,0.1007,0.1175,0.1331,0.1513,0.1671,0.1833,0.2011,0.2176,0.2342,0.251,0.2663,0.2829,0.3009,0.3179,0.3332,0.3503,0.367,0.3846,0.4001,0.4183,0.4337,0.4516,0.468,0.4831,0.5008,0.5174,0.5339,0.5497,0.5666,0.584,0.6,0.6176,0.6335,0.6508,0.6669,0.6828,0.7009,0.7173,0.7347,0.75,0.7679,0.7834,0.8005,0.8165,0.8335,0.851,0.8667,0.8837,0.901,0.9176,0.933,0.9513,0.9675,0.983,1.0011,1.0173,1.0343,1.0509]","[1,1,1,1,1,1,1,1,1,1,1,1,1,1,1,1,1,1,1,1,1,1,1,1,1,2,2,2,2,2,2,2,2,2,2,2,2,2,2,2,2,2,2,2,2,2,2,2,2,2,2,2,2,2,2,2,2,2,2,2,2,2,2,2]",1,59.575,4,32,0,32,0,1,,1,SV_6SxWlNLsoRj8nqK,304B,2022-06-01_13h57.00.033,implicit_time,2021.1.4,MacIntel,60.0024001
control,82.5,0,0,10,NA,0,NA,0,0,0.5,FALSE,baseline,0,"[-0.012804,-0.012804,-0.012804,-0.012804,-0.012804,-0.012804,-0.012804,-0.012804,-0.012804,-0.012804,-0.012804,-0.012804,-0.012804,-0.012804,-0.012804,-0.012804,-0.012804,-0.012804,-0.012804,-0.012804,-0.012804,-0.012804,-0.000072,0.029569,0.06748,0.104271,0.122937,0.133476,0.139894,0.143796,0.145704,0.146398,0.146398,0.143293,0.132279,0.121427,0.110936,0.101347,0.093523,0.085738,0.080032,0.068924,0.063028,0.054938,0.04721,0.040194,0.033671,0.029541,0.026303,0.022705,0.021101,0.018936,0.016838,0.014739,0.012641,0.010609,0.008577,0.007239,0.0059,0.004561,0.003232,0.00177,0.00101,0.000109,0.000109]","[0.008732,0.008732,0.008732,0.008732,0.008732,0.008732,0.008732,0.008732,0.008732,0.008732,0.008732,0.008732,0.008732,0.008732,0.008732,0.008732,0.008732,0.008732,0.008732,0.009583,0.041201,0.093731,0.266946,0.481378,0.736246,0.975745,1.106596,1.191836,1.252774,1.293068,1.310408,1.313442,1.313442,1.300852,1.253837,1.186916,1.09558,0.981048,0.858505,0.739451,0.625713,0.468122,0.404433,0.32987,0.263246,0.211169,0.168351,0.146091,0.122158,0.108788,0.100437,0.094964,0.090824,0.086684,0.083579,0.080573,0.077568,0.074562,0.071556,0.06855,0.063489,0.058044,0.054684,0.043044,0.023137]","[0.0003,0.0168,0.0322,0.0504,0.067,0.0836,0.0999,0.1157,0.1337,0.1501,0.1669,0.1837,0.2,0.2169,0.2324,0.2504,0.2658,0.2829,0.2994,0.316,0.3336,0.35,0.3671,0.3835,0.3999,0.4174,0.4334,0.4496,0.4661,0.4836,0.4997,0.5174,0.5334,0.5503,0.5677,0.5823,0.5994,0.6162,0.6332,0.649,0.666,0.6837,0.7001,0.7164,0.7338,0.7492,0.767,0.7839,0.7999,0.8164,0.8338,0.8504,0.8659,0.8834,0.8998,0.9171,0.9325,0.9494,0.9657,0.9833,1,1.017,1.0325,1.0496,1.0654]","[1,1,1,1,1,1,1,1,1,1,1,1,1,1,1,1,1,1,1,1,1,1,1,1,1,2,2,2,2,2,2,2,2,2,2,2,2,2,2,2,2,2,2,2,2,2,2,2,2,2,2,2,2,2,2,2,2,2,2,2,2,2,2,2,2]",1,61.1567,4,33,0,33,0,1,,1,SV_6SxWlNLsoRj8nqK,304B,2022-06-01_13h57.00.033,implicit_time,2021.1.4,MacIntel,60.0024001
control,105,0,0,10,NA,0,NA,0,1,0.5,FALSE,baseline,1,"[-0.00142,-0.00142,-0.00142,-0.00142,-0.00142,-0.00142,-0.00142,-0.00142,-0.00142,-0.00142,-0.00142,-0.00142,-0.00142,-0.00142,-0.00142,-0.00142,-0.00142,-0.00142,-0.00142,-0.00142,-0.00142,-0.00142,-0.00142,-0.006699,-0.030938,-0.053335,-0.077147,-0.113596,-0.164324,-0.226636,-0.247609,-0.255641,-0.266341,-0.270756,-0.271592,-0.271592,-0.265914,-0.253248,-0.231468,-0.214435,-0.191848,-0.170429,-0.15427,-0.143722,-0.13454,-0.128929,-0.124828,-0.12066,-0.118049,-0.11408,-0.111839,-0.10958,-0.107529,-0.105754,-0.103475,-0.100703,-0.097038,-0.093382,-0.0878,-0.082208,-0.076663,-0.071071,-0.066513,-0.061538,-0.059127,-0.056535,-0.054949,-0.053506,-0.052253,-0.051009,-0.048996,-0.046224,-0.041686,-0.038913,-0.035248,-0.033169,-0.031166]","[-0.00685,-0.00685,-0.00685,-0.00685,-0.00685,-0.00685,-0.00685,-0.00685,-0.00685,-0.00685,-0.00685,-0.00685,-0.00685,-0.00685,-0.00685,-0.00685,-0.00685,-0.00685,-0.00685,-0.00685,-0.00685,-0.00685,-0.00685,0.025534,0.110929,0.196098,0.277353,0.415676,0.627967,0.973576,1.101464,1.147883,1.211756,1.234172,1.239134,1.229621,1.177104,1.103448,0.954308,0.851657,0.71668,0.597144,0.497967,0.43605,0.369625,0.317109,0.267967,0.215451,0.170435,0.103046,0.073314,0.044476,0.022698,0.0092,0.002395,-0.00071,-0.001745,-0.001745,-0.000498,0.000651,0.001799,0.001799,0.001799,-0.00356,-0.011911,-0.023466,-0.031817,-0.037276,-0.040069,-0.040991,-0.040991,-0.040991,-0.040991,-0.038907,-0.03454,-0.030371,-0.027351]","[0.0004,0.0151,0.0315,0.0497,0.0658,0.0817,0.0997,0.1152,0.1332,0.1484,0.1665,0.1815,0.1995,0.2161,0.2317,0.2497,0.2664,0.2815,0.2994,0.3149,0.3329,0.3497,0.366,0.3828,0.399,0.4153,0.4322,0.4481,0.4663,0.4824,0.4999,0.5158,0.5332,0.5488,0.5665,0.5821,0.5999,0.6151,0.6316,0.6496,0.6658,0.6832,0.6984,0.7161,0.7318,0.7482,0.7672,0.7818,0.7986,0.8153,0.8322,0.8485,0.8658,0.8821,0.8996,0.9148,0.9327,0.949,0.9666,0.9818,0.9984,1.0164,1.0328,1.0494,1.0654,1.0828,1.0994,1.1153,1.1324,1.1484,1.1647,1.1821,1.1995,1.2148,1.2326,1.2488,1.2666]","[1,1,1,1,1,1,1,1,1,1,1,1,1,1,1,1,1,1,1,1,1,1,1,1,1,1,1,1,1,2,2,2,2,2,2,2,2,2,2,2,2,2,2,2,2,2,2,2,2,2,2,2,2,2,2,2,2,2,2,2,2,2,2,2,2,2,2,2,2,2,2,2,2,2,2,2,2]",2,62.942,4,34,0,34,0,1,,1,SV_6SxWlNLsoRj8nqK,304B,2022-06-01_13h57.00.033,implicit_time,2021.1.4,MacIntel,60.0024001
control,97.5,0,0,10,NA,0,NA,0,0,0.5,FALSE,baseline,0,"[-0.024093,-0.024093,-0.024093,-0.024093,-0.024093,-0.024093,-0.024093,-0.024093,-0.024093,-0.024093,-0.024093,-0.024093,-0.024093,-0.024093,-0.024093,-0.024093,-0.021615,-0.018538,-0.018538,-0.030739,-0.061415,-0.089585,-0.114726,-0.116482,-0.116482,-0.116482,-0.116482,-0.111868,-0.106276,-0.096677,-0.082606,-0.063912,-0.044069,-0.024055,-0.00668,0.01022,0.024784,0.037925,0.045947,0.055812,0.065116,0.072721,0.080231,0.084323,0.087333,0.09002,0.091805,0.092631,0.093448,0.093448,0.093448,0.093448,0.093448,0.093448,0.092811,0.089137,0.083526,0.076927,0.067974,0.056249,0.046726,0.039558,0.028155,0.022791]","[-0.029591,-0.029591,-0.029591,-0.029591,-0.029591,-0.029591,-0.029591,-0.029591,-0.029591,-0.029591,-0.029591,-0.029591,-0.029591,-0.029591,-0.029591,-0.027068,-0.017143,0.004408,0.044235,0.107498,0.260396,0.44796,0.781149,0.927652,1.026687,1.080168,1.11757,1.131592,1.131592,1.098699,1.028063,0.919046,0.794292,0.665653,0.546995,0.43727,0.340886,0.262339,0.215125,0.162609,0.116685,0.07683,0.039556,0.018133,-0.001164,-0.014548,-0.027933,-0.039573,-0.051157,-0.061053,-0.066483,-0.070808,-0.073813,-0.075685,-0.076621,-0.077641,-0.077641,-0.077641,-0.077641,-0.071658,-0.061464,-0.052106,-0.032399,-0.020376]","[0.0004,0.0179,0.0343,0.051,0.0673,0.0832,0.101,0.1178,0.1343,0.1499,0.1677,0.1833,0.201,0.2175,0.2343,0.2499,0.2676,0.2845,0.3005,0.3166,0.3332,0.3505,0.3675,0.3829,0.4004,0.4173,0.433,0.4512,0.4664,0.483,0.4996,0.518,0.5343,0.5509,0.5683,0.5843,0.5998,0.6172,0.6338,0.6498,0.6666,0.6835,0.7001,0.7166,0.7343,0.7502,0.7676,0.7838,0.801,0.8172,0.8332,0.8509,0.8669,0.8847,0.9018,0.9182,0.9333,0.9511,0.9666,0.9832,1,1.0178,1.033,1.0506]","[1,1,1,1,1,1,1,1,1,1,1,1,1,1,1,1,1,1,1,1,1,1,1,1,2,2,2,2,2,2,2,2,2,2,2,2,2,2,2,2,2,2,2,2,2,2,2,2,2,2,2,2,2,2,2,2,2,2,2,2,2,2,2,2]",2,64.508,4,35,0,35,0,1,,1,SV_6SxWlNLsoRj8nqK,304B,2022-06-01_13h57.00.033,implicit_time,2021.1.4,MacIntel,60.0024001
control,135,0,0,10,NA,0,NA,0,1,0.5,FALSE,baseline,1,"[0.012252,0.012252,0.012252,0.012252,0.012252,0.012252,0.012252,0.012252,0.012252,0.012252,0.012252,0.012252,0.012252,0.012252,0.01135,0.00027,-0.030634,-0.075229,-0.163261,-0.239425,-0.319747,-0.402035,-0.460919,-0.523591,-0.552795,-0.573142,-0.594647,-0.600533,-0.604217,-0.605613,-0.601482,-0.576987,-0.520496,-0.451377,-0.359167,-0.257511,-0.198475,-0.139164,-0.090942,-0.053221,-0.027928,0.003735,0.035352,0.063455,0.092565,0.119101,0.133466,0.147243,0.155313,0.160364,0.160981,0.16362,0.164864,0.164864,0.164864,0.164864,0.164864,0.159794,0.15085,0.136248,0.116918,0.094036,0.071316,0.053714,0.042055,0.030471]","[0.006733,0.006733,0.006733,0.006733,0.006733,0.006733,0.006733,0.006733,0.006733,0.006733,0.006733,0.006733,0.006733,0.010973,0.024385,0.059292,0.109937,0.181849,0.306093,0.423829,0.557473,0.70141,0.808598,0.917841,0.966558,0.995226,1.02164,1.026716,1.027864,1.027864,1.010156,0.973576,0.897609,0.797992,0.66388,0.516583,0.433527,0.342091,0.268024,0.209227,0.171456,0.126426,0.083721,0.048006,0.014957,-0.012833,-0.029762,-0.044011,-0.052036,-0.057409,-0.058331,-0.061237,-0.063095,-0.064966,-0.066823,-0.068695,-0.069631,-0.069631,-0.069631,-0.069631,-0.062839,-0.05205,-0.039516,-0.028018,-0.02073,-0.012081]","[0.0003,0.0178,0.0345,0.0511,0.0679,0.0844,0.101,0.1178,0.1331,0.1502,0.1664,0.1833,0.2005,0.218,0.2351,0.2495,0.2674,0.2843,0.3009,0.3181,0.3346,0.3501,0.3678,0.385,0.4014,0.4177,0.434,0.4501,0.4676,0.4843,0.5011,0.5177,0.5342,0.5508,0.5673,0.5831,0.5999,0.6168,0.6348,0.6502,0.6677,0.6841,0.7017,0.7169,0.7344,0.751,0.7679,0.783,0.8002,0.817,0.8331,0.8498,0.8667,0.884,0.8998,0.9166,0.9331,0.9497,0.9668,0.9833,1.0014,1.0179,1.0332,1.0515,1.0676,1.0837]","[1,1,1,1,1,1,1,1,1,1,1,1,1,1,1,1,1,1,1,1,1,1,1,2,2,2,2,2,2,2,2,2,2,2,2,2,2,2,2,2,2,2,2,2,2,2,2,2,2,2,2,2,2,2,2,2,2,2,2,2,2,2,2,2,2,2]",2,66.1075,4,36,0,36,0,1,,1,SV_6SxWlNLsoRj8nqK,304B,2022-06-01_13h57.00.033,implicit_time,2021.1.4,MacIntel,60.0024001
control,127.5,0,0,10,NA,0,NA,0,0,0.5,FALSE,baseline,0,"[0.014189,0.014189,0.014189,0.014189,0.014189,0.014189,0.014189,0.014189,0.014189,0.014189,0.014189,0.014189,0.014189,0.014189,0.014189,0.014189,0.014189,0.014189,0.014189,0.011369,-0.011152,-0.073292,-0.230832,-0.393727,-0.521417,-0.666813,-0.742683,-0.769713,-0.804671,-0.817963,-0.819986,-0.817802,-0.79455,-0.754921,-0.624573,-0.524901,-0.42315,-0.316566,-0.255755,-0.185639,-0.131236,-0.097522,-0.064349,-0.036511,-0.012595,0.002719,0.0181,0.026512,0.03107,0.033082,0.035095,0.037099,0.039092,0.040336,0.04158,0.042206,0.042833,0.042833,0.042833,0.042833,0.039149,0.035465,0.030889,0.026114,0.02112,0.016334,0.013553]","[-0.001845,-0.001845,-0.001845,-0.001845,-0.001845,-0.001845,-0.001845,-0.001845,-0.001845,-0.001845,-0.001845,-0.001845,-0.001845,-0.001845,-0.001845,-0.001845,-0.001845,-0.001845,-0.001845,-0.001845,0.019479,0.089761,0.285662,0.506403,0.684411,0.892873,1.008993,1.047104,1.099705,1.119555,1.122575,1.118222,1.0835,1.02432,0.846553,0.732305,0.615774,0.497683,0.432137,0.351364,0.286442,0.245523,0.202747,0.167387,0.13757,0.118585,0.103826,0.094057,0.090654,0.088683,0.086713,0.084756,0.082799,0.081878,0.080006,0.079071,0.077256,0.075384,0.072378,0.070507,0.067303,0.062964,0.058427,0.052458,0.045029,0.039045,0.03492]","[0.0004,0.0165,0.0328,0.0495,0.066,0.0831,0.0984,0.1164,0.1327,0.1483,0.165,0.1832,0.1996,0.2161,0.2329,0.2496,0.2664,0.282,0.2994,0.317,0.3334,0.3498,0.3663,0.383,0.3997,0.4163,0.4326,0.4503,0.4654,0.4828,0.4996,0.5158,0.5326,0.5489,0.5665,0.582,0.5987,0.6164,0.6333,0.6498,0.6667,0.6827,0.6996,0.7166,0.7325,0.7506,0.7664,0.7835,0.7984,0.8151,0.8319,0.8488,0.8667,0.8833,0.8992,0.9158,0.9325,0.95,0.9649,0.9835,0.9994,1.0152,1.0326,1.0498,1.0665,1.0835,1.0987]","[1,1,1,1,1,1,1,1,1,1,1,1,1,1,1,1,1,1,1,1,1,1,1,1,1,2,2,2,2,2,2,2,2,2,2,2,2,2,2,2,2,2,2,2,2,2,2,2,2,2,2,2,2,2,2,2,2,2,2,2,2,2,2,2,2,2,2]",2,67.724,4,37,0,37,0,1,,1,SV_6SxWlNLsoRj8nqK,304B,2022-06-01_13h57.00.033,implicit_time,2021.1.4,MacIntel,60.0024001
control,45,0,0,10,NA,0,NA,0,1,0.5,FALSE,baseline,1,"[0.007694,0.007694,0.007694,0.007694,0.007694,0.007694,0.007694,0.007694,0.007694,0.007694,0.007694,0.007694,0.007694,0.007694,0.007694,0.007694,0.007694,0.007694,0.007694,0.007694,0.007694,0.007694,0.007694,0.007694,0.007694,0.026759,0.068477,0.134738,0.351447,0.577555,0.738114,0.848771,0.924517,0.96783,0.996029,1.005485,1.006871,0.998469,0.982566,0.965286,0.910845,0.834188,0.744067,0.614669,0.47326,0.377386,0.275663,0.19705,0.156613,0.114079,0.084513,0.067946,0.055157,0.046128,0.040944,0.038029,0.03669,0.035988,0.035361,0.035361,0.035361,0.037991,0.042928,0.049004,0.052878,0.054957,0.055641,0.055641,0.050647,0.043498,0.033367,0.026389]","[0.024258,0.024258,0.024258,0.024258,0.024258,0.024258,0.024258,0.024258,0.024258,0.024258,0.024258,0.024258,0.024258,0.024258,0.024258,0.024258,0.024258,0.024258,0.024258,0.024258,0.024258,0.024258,0.024258,0.024258,0.026781,0.061844,0.116643,0.183451,0.381748,0.564959,0.676797,0.757032,0.815035,0.847389,0.871521,0.880155,0.88224,0.88224,0.872655,0.857612,0.815985,0.765056,0.711902,0.635269,0.546953,0.477281,0.392892,0.31769,0.274106,0.225277,0.191703,0.172321,0.154797,0.139895,0.130835,0.125377,0.122371,0.117295,0.114304,0.112248,0.104705,0.094738,0.087166,0.078092,0.072308,0.068168,0.064056,0.058583,0.051154,0.040506,0.025406,0.017693]","[0.0004,0.0165,0.0334,0.049,0.0666,0.0831,0.0999,0.1164,0.1329,0.1496,0.1666,0.1833,0.2,0.2163,0.2332,0.2497,0.2654,0.2833,0.3001,0.3154,0.3334,0.3499,0.3652,0.3832,0.3996,0.4155,0.433,0.4497,0.4672,0.4832,0.5001,0.5166,0.533,0.5493,0.5667,0.582,0.6007,0.616,0.6332,0.6492,0.6667,0.682,0.7004,0.7158,0.7329,0.7488,0.7669,0.7829,0.8001,0.8171,0.8337,0.8502,0.8669,0.8826,0.899,0.9161,0.9329,0.9498,0.9659,0.9825,0.9997,1.0161,1.0327,1.0497,1.0664,1.0827,1.0996,1.1164,1.1334,1.1488,1.1667,1.1832]","[1,1,1,1,1,1,1,1,1,1,1,1,1,1,1,1,1,1,1,1,1,1,1,1,1,1,1,1,1,1,2,2,2,2,2,2,2,2,2,2,2,2,2,2,2,2,2,2,2,2,2,2,2,2,2,2,2,2,2,2,2,2,2,2,2,2,2,2,2,2,2,2]",3,69.4248,4,38,0,38,0,1,,1,SV_6SxWlNLsoRj8nqK,304B,2022-06-01_13h57.00.033,implicit_time,2021.1.4,MacIntel,60.0024001
control,52.5,0,0,10,NA,0,NA,0,0,0.5,FALSE,baseline,0,"[0.008008,0.008008,0.008008,0.008008,0.008008,0.008008,0.008008,0.008008,0.008008,0.008008,0.008008,0.008008,0.008008,0.008008,0.008008,0.008008,0.008008,0.019553,0.046602,0.086004,0.17677,0.293399,0.414233,0.52696,0.630695,0.664761,0.701219,0.727974,0.739596,0.740982,0.730462,0.698646,0.657298,0.603864,0.548711,0.46349,0.352833,0.291851,0.215403,0.148695,0.096021,0.066389,0.034193,0.010258]","[-0.000228,-0.000228,-0.000228,-0.000228,-0.000228,-0.000228,-0.000228,-0.000228,-0.000228,-0.000228,-0.000228,-0.000228,-0.000228,-0.000228,-0.000228,-0.000228,-0.000228,0.016204,0.056896,0.110688,0.225957,0.369852,0.515718,0.66164,0.805422,0.854167,0.905818,0.943589,0.959256,0.96134,0.952705,0.920365,0.875236,0.819402,0.748057,0.637622,0.484937,0.41372,0.318612,0.234152,0.166366,0.123987,0.075937,0.036011]","[0.0003,0.0178,0.0342,0.0511,0.0662,0.0844,0.0997,0.1175,0.133,0.1511,0.1677,0.1844,0.2007,0.217,0.2339,0.2495,0.2676,0.2841,0.3013,0.3166,0.3335,0.3496,0.368,0.3843,0.4012,0.4179,0.433,0.4497,0.4675,0.4849,0.501,0.5173,0.5331,0.5509,0.5679,0.5834,0.601,0.6172,0.6337,0.6512,0.6672,0.6832,0.7,0.718]","[1,1,1,1,1,1,1,1,1,1,1,1,1,1,1,1,1,1,1,1,1,1,1,1,2,2,2,2,2,2,2,2,2,2,2,2,2,2,2,2,2,2,2,2]",3,70.6585,4,39,0,39,0,1,,1,SV_6SxWlNLsoRj8nqK,304B,2022-06-01_13h57.00.033,implicit_time,2021.1.4,MacIntel,60.0024001
control,135,0,0,10,NA,0,NA,0,1,0.5,FALSE,baseline,1,"[-0.00649,-0.00649,-0.00649,-0.00649,-0.00649,-0.00649,-0.00649,-0.00649,-0.00649,-0.00649,-0.00649,-0.00649,-0.00649,-0.00649,-0.00649,-0.00649,-0.00649,-0.012851,-0.045256,-0.111963,-0.195959,-0.296106,-0.422875,-0.482224,-0.510992,-0.539456,-0.562527,-0.57205,-0.575734,-0.575734,-0.567559,-0.521398,-0.450389,-0.354591,-0.237127,-0.162957,-0.077422,-0.003585,0.031791,0.048966,0.056951,0.069522,0.072275,0.073984,0.073984,0.073984,0.073984,0.073984,0.073984,0.073984,0.073984,0.073984,0.073984,0.073984,0.073984,0.073984,0.073414,0.068838,0.055271,0.04232,0.032095]","[-0.009628,-0.009628,-0.009628,-0.009628,-0.009628,-0.009628,-0.009628,-0.009628,-0.009628,-0.009628,-0.009628,-0.009628,-0.009628,-0.009628,-0.009628,-0.009628,-0.009628,-0.006736,0.034466,0.127943,0.263714,0.424282,0.617475,0.702615,0.742712,0.778568,0.803692,0.812355,0.813503,0.812624,0.789698,0.728845,0.650113,0.5445,0.417647,0.337767,0.242758,0.154697,0.108802,0.083154,0.07123,0.041555,0.027972,0.016417,0.00808,-0.000271,-0.005715,-0.009855,-0.012833,-0.014704,-0.016562,-0.016562,-0.016562,-0.016562,-0.016562,-0.016562,-0.016562,-0.016562,-0.016562,-0.016562,-0.013783]","[0.0004,0.0166,0.0329,0.0491,0.0671,0.0821,0.1003,0.1173,0.1324,0.1502,0.1657,0.1836,0.2004,0.2158,0.2327,0.2497,0.2668,0.2827,0.2996,0.3164,0.3324,0.3504,0.3782,0.3908,0.4048,0.4205,0.4336,0.4492,0.4668,0.4835,0.4998,0.5158,0.5329,0.5497,0.566,0.5834,0.5997,0.6158,0.6338,0.6501,0.6658,0.6837,0.7005,0.7172,0.7321,0.7501,0.7659,0.7836,0.8004,0.8156,0.8332,0.8494,0.8662,0.8832,0.8992,0.9172,0.9336,0.9492,0.9664,0.9827,0.9997]","[1,1,1,1,1,1,1,1,1,1,1,1,1,1,1,1,1,1,1,1,1,1,1,1,1,1,2,2,2,2,2,2,2,2,2,2,2,2,2,2,2,2,2,2,2,2,2,2,2,2,2,2,2,2,2,2,2,2,2,2,2]",4,72.5909,4,40,0,40,0,1,,1,SV_6SxWlNLsoRj8nqK,304B,2022-06-01_13h57.00.033,implicit_time,2021.1.4,MacIntel,60.0024001
control,142.5,0,0,10,NA,0,NA,0,0,0.5,FALSE,baseline,0,"[0.009451,0.009451,0.009451,0.009451,0.009451,0.009451,0.009451,0.009451,0.009451,0.009451,0.009451,0.009451,0.009451,0.009451,0.009451,0.008321,-0.023305,-0.065602,-0.129641,-0.315769,-0.499266,-0.624449,-0.724634,-0.785986,-0.815609,-0.837512,-0.844253,-0.844253,-0.832347,-0.748768,-0.65092,-0.463985,-0.341318,-0.236187,-0.126518,-0.075125,-0.025317,0.002074,0.018566,0.02675,0.035266,0.040839,0.044419,0.04758,0.050618,0.053524,0.055603,0.056856,0.0581,0.059353,0.063493,0.065639,0.067784,0.068544,0.068544,0.068544,0.064385,0.058185,0.05209,0.045197,0.039586]","[-0.002865,-0.002865,-0.002865,-0.002865,-0.002865,-0.002865,-0.002865,-0.002865,-0.002865,-0.002865,-0.002865,-0.002865,-0.002865,-0.002865,-0.002865,-0.002865,0.013737,0.046617,0.10574,0.280671,0.477295,0.632135,0.766134,0.847928,0.887868,0.914736,0.921017,0.921017,0.903067,0.822308,0.742669,0.591614,0.500037,0.422879,0.339411,0.292524,0.241454,0.208731,0.182317,0.16414,0.143397,0.128071,0.114701,0.106378,0.099572,0.0941,0.090995,0.089123,0.087266,0.085394,0.080233,0.07476,0.069288,0.063815,0.057009,0.048658,0.04001,0.030737,0.021663,0.015212,0.011611]","[0.0003,0.0169,0.0339,0.0489,0.0668,0.0834,0.1001,0.1171,0.1326,0.1497,0.1655,0.1834,0.1998,0.217,0.2335,0.2496,0.2658,0.2837,0.3007,0.3169,0.3329,0.3509,0.3656,0.3824,0.3986,0.4165,0.4341,0.4487,0.4661,0.4832,0.4987,0.5162,0.5336,0.5501,0.5661,0.5838,0.5991,0.6166,0.633,0.6503,0.6672,0.6833,0.7005,0.7161,0.7329,0.7493,0.7664,0.7829,0.7989,0.8158,0.8337,0.8502,0.866,0.8829,0.9003,0.9159,0.9336,0.9499,0.966,0.983,1.0007]","[1,1,1,1,1,1,1,1,1,1,1,1,1,1,1,1,1,1,1,1,1,1,2,2,2,2,2,2,2,2,2,2,2,2,2,2,2,2,2,2,2,2,2,2,2,2,2,2,2,2,2,2,2,2,2,2,2,2,2,2,2]",4,74.1088,4,41,0,41,0,1,,1,SV_6SxWlNLsoRj8nqK,304B,2022-06-01_13h57.00.033,implicit_time,2021.1.4,MacIntel,60.0024001
control,75,0,0,10,NA,0,NA,0,1,0.5,FALSE,baseline,1,"[0.012508,0.012508,0.012508,0.012508,0.012508,0.012508,0.012508,0.012508,0.012508,0.012508,0.012508,0.012508,0.012508,0.012508,0.012508,0.012508,0.012508,0.012508,0.012508,0.029047,0.069427,0.127722,0.199034,0.248481,0.304725,0.334376,0.35121,0.363296,0.367977,0.368803,0.364616,0.347108,0.317505,0.28229,0.246535,0.210551,0.178764,0.148325,0.116196,0.098157,0.070946,0.06393,0.057312,0.053476,0.05078,0.049109,0.047504,0.046033,0.044704,0.043441,0.043441,0.043441,0.043441,0.043441,0.043441,0.042871,0.04008,0.035902,0.035276,0.031848,0.029066,0.026275,0.022591,0.017597]","[0.003486,0.003486,0.003486,0.003486,0.003486,0.003486,0.003486,0.003486,0.003486,0.003486,0.003486,0.003486,0.003486,0.003486,0.003486,0.003486,0.01636,0.024966,0.065984,0.20632,0.342701,0.506289,0.686296,0.797085,0.91536,0.979431,1.021158,1.053428,1.068783,1.073745,1.070626,1.030374,0.961439,0.867367,0.754678,0.63232,0.513705,0.40578,0.304235,0.247948,0.160227,0.13214,0.105655,0.088357,0.074987,0.065091,0.05674,0.051267,0.048275,0.046418,0.044547,0.044547,0.044547,0.044547,0.044547,0.044547,0.044547,0.044547,0.044547,0.044547,0.043512,0.040407,0.036068,0.028639]","[0.0004,0.0165,0.0317,0.049,0.0656,0.0818,0.0998,0.1149,0.1329,0.1491,0.1668,0.1818,0.1993,0.2153,0.2322,0.2483,0.2653,0.282,0.2989,0.3158,0.3316,0.3493,0.3652,0.3825,0.3999,0.4166,0.4326,0.4488,0.4666,0.4832,0.4999,0.5151,0.5315,0.5491,0.5656,0.5828,0.6,0.6161,0.6319,0.6484,0.6653,0.6823,0.699,0.7167,0.7316,0.7487,0.7665,0.7818,0.7988,0.8159,0.8318,0.8498,0.866,0.8818,0.8986,0.9156,0.9323,0.9497,0.9654,0.9824,0.9982,1.0154,1.0325,1.0491]","[1,1,1,1,1,1,1,1,1,1,1,1,1,1,1,1,1,1,1,1,1,1,1,1,2,2,2,2,2,2,2,2,2,2,2,2,2,2,2,2,2,2,2,2,2,2,2,2,2,2,2,2,2,2,2,2,2,2,2,2,2,2,2,2]",5,75.6741,4,42,0,42,0,1,,1,SV_6SxWlNLsoRj8nqK,304B,2022-06-01_13h57.00.033,implicit_time,2021.1.4,MacIntel,60.0024001
control,67.5,0,0,10,NA,0,NA,0,0,0.5,FALSE,baseline,0,"[0.006536,0.006536,0.006536,0.006536,0.006536,0.006536,0.006536,0.006536,0.006536,0.006536,0.006536,0.006536,0.006536,0.006536,0.006536,0.006536,0.009223,0.025686,0.072456,0.131672,0.199775,0.249516,0.30239,0.329715,0.346501,0.36228,0.365423,0.366116,0.364853,0.354979,0.331927,0.314552,0.285974,0.262257,0.239708,0.212298,0.1856,0.156566,0.128539,0.110082,0.089916,0.074725,0.066522,0.059714,0.055128,0.055128,0.053856,0.053856,0.053856,0.053856,0.053856,0.053856,0.053856,0.053856,0.053856,0.053856,0.051558,0.047818,0.043811,0.037412,0.030804,0.025895,0.019923,0.016458]","[0.010079,0.010079,0.010079,0.010079,0.010079,0.010079,0.010079,0.010079,0.010079,0.010079,0.010079,0.010079,0.010079,0.010079,0.010079,0.010079,0.017636,0.049637,0.141823,0.272916,0.451391,0.595073,0.75662,0.833977,0.883147,0.930049,0.938329,0.940413,0.937606,0.914694,0.867395,0.829794,0.757074,0.693442,0.623685,0.558735,0.486482,0.415194,0.34521,0.300677,0.251237,0.215323,0.197133,0.182586,0.172165,0.170123,0.167316,0.167316,0.167316,0.167316,0.167316,0.167316,0.167316,0.167316,0.167316,0.165629,0.158823,0.143497,0.124072,0.100154,0.073867,0.056385,0.03706,0.025434]","[0.0004,0.0151,0.033,0.0493,0.0659,0.0827,0.0997,0.1164,0.1319,0.1493,0.1651,0.1832,0.1992,0.2165,0.2316,0.2497,0.266,0.2833,0.2991,0.3162,0.3323,0.3484,0.3672,0.3832,0.3986,0.4151,0.4335,0.45,0.4653,0.4829,0.4994,0.5159,0.5318,0.5497,0.5654,0.5834,0.5996,0.6165,0.6335,0.6499,0.6661,0.6824,0.6996,0.7166,0.7318,0.7487,0.766,0.7829,0.7982,0.8163,0.8316,0.8495,0.8651,0.8828,0.8996,0.9153,0.9328,0.9493,0.9653,0.9836,0.999,1.0151,1.0321,1.0496]","[1,1,1,1,1,1,1,1,1,1,1,1,1,1,1,1,1,1,1,1,1,1,1,1,1,2,2,2,2,2,2,2,2,2,2,2,2,2,2,2,2,2,2,2,2,2,2,2,2,2,2,2,2,2,2,2,2,2,2,2,2,2,2,2]",5,77.2413,4,43,0,43,0,1,,1,SV_6SxWlNLsoRj8nqK,304B,2022-06-01_13h57.00.033,implicit_time,2021.1.4,MacIntel,60.0024001
control,45,0,0,10,NA,0,NA,0,1,0.5,FALSE,baseline,1,"[0.01059,0.01059,0.01059,0.01059,0.01059,0.01059,0.01059,0.01059,0.01059,0.01059,0.01059,0.01059,0.01059,0.01059,0.01059,0.01059,0.01059,0.01059,0.01059,0.01059,0.02112,0.050979,0.095356,0.176893,0.303197,0.459294,0.597076,0.718195,0.786279,0.831805,0.862585,0.885097,0.897183,0.897183,0.882096,0.860848,0.836761,0.796182,0.755043,0.705881,0.622274,0.567605,0.462237,0.403476,0.334528,0.268637,0.229435,0.169488,0.143967,0.115171,0.09922,0.084456,0.07293,0.070006,0.067927,0.066522,0.064983,0.062278,0.05828,0.054293,0.049118,0.042938,0.036785,0.030718,0.025155,0.019771,0.015328,0.012138,0.009214,0.007125,0.005853,0.005853,0.005853,0.005853,0.005273,0.005273,0.004685,0.004096,0.004096,0.004096,0.00346,0.002824,0.002824,0.002064]","[-0.001235,-0.001235,-0.001235,-0.001235,-0.001235,-0.001235,-0.001235,-0.001235,-0.001235,-0.001235,-0.001235,-0.001235,-0.001235,-0.001235,-0.001235,-0.001235,-0.001235,-0.001235,-0.001235,0.000452,0.038549,0.10547,0.188328,0.316868,0.501313,0.708925,0.906314,1.120604,1.249343,1.325026,1.366129,1.389098,1.39199,1.376323,1.352106,1.326075,1.296074,1.25025,1.200995,1.137958,1.029651,0.956647,0.825002,0.746228,0.64647,0.551277,0.491955,0.402462,0.366123,0.327417,0.303626,0.283351,0.264735,0.259262,0.25515,0.25101,0.244205,0.232167,0.212771,0.193432,0.171853,0.150359,0.128964,0.112517,0.097247,0.08521,0.073272,0.064921,0.059448,0.055322,0.053451,0.051593,0.051593,0.051593,0.050657,0.050657,0.049793,0.049793,0.048913,0.048913,0.047113,0.045241,0.04225,0.035473]","[0.0003,0.0168,0.0323,0.0499,0.067,0.0823,0.1002,0.1157,0.1336,0.1498,0.167,0.1832,0.1997,0.2161,0.2332,0.2503,0.2663,0.2838,0.3002,0.3166,0.3323,0.3493,0.3666,0.3837,0.3992,0.4173,0.4336,0.4495,0.4658,0.4825,0.4996,0.5171,0.5335,0.5492,0.5655,0.584,0.6003,0.6173,0.6335,0.6502,0.6655,0.684,0.7001,0.7172,0.7333,0.749,0.7656,0.7829,0.7999,0.8164,0.8323,0.8488,0.8667,0.8825,0.9002,0.9164,0.9333,0.9506,0.9669,0.983,1.0003,1.0163,1.0341,1.0488,1.0668,1.0822,1.0991,1.1159,1.1336,1.149,1.1659,1.1838,1.1988,1.2166,1.2334,1.2487,1.2668,1.2834,1.2998,1.3171,1.3332,1.3489,1.366,1.3831]","[1,1,1,1,1,1,1,1,1,1,1,1,1,1,1,1,1,1,1,1,1,1,1,1,1,1,2,2,2,2,2,2,2,2,2,2,2,2,2,2,2,2,2,2,2,2,2,2,2,2,2,2,2,2,2,2,2,2,2,2,2,2,2,2,2,2,2,2,2,2,2,2,2,2,2,2,2,2,2,2,2,2,2,2]",6,79.141,4,44,0,44,0,1,,1,SV_6SxWlNLsoRj8nqK,304B,2022-06-01_13h57.00.033,implicit_time,2021.1.4,MacIntel,60.0024001
control,37.5,0,0,10,NA,0,NA,0,0,0.5,FALSE,baseline,0,"[-0.000366,-0.000366,-0.000366,-0.000366,-0.000366,-0.000366,-0.000366,-0.000366,-0.000366,-0.000366,-0.000366,-0.000366,-0.000366,-0.000366,-0.000366,-0.000366,0.000754,0.029009,0.074307,0.236461,0.403904,0.560988,0.691962,0.767566,0.825795,0.864864,0.897259,0.911083,0.916029,0.916656,0.902348,0.871387,0.827998,0.770319,0.70552,0.601785,0.506025,0.388722,0.242718,0.176903,0.121294,0.100806,0.075247,0.065449,0.061423,0.059325,0.058689,0.058053,0.055954,0.053856,0.051065,0.048283,0.046194,0.044162,0.04138,0.037697,0.03312,0.027519,0.020654]","[-0.021311,-0.021311,-0.021311,-0.021311,-0.021311,-0.021311,-0.021311,-0.021311,-0.021311,-0.021311,-0.021311,-0.021311,-0.021311,-0.021311,-0.021311,-0.021311,-0.018788,0.015056,0.065148,0.206873,0.332918,0.438191,0.526749,0.577393,0.615263,0.640458,0.66354,0.676301,0.681348,0.682298,0.682298,0.664249,0.636318,0.597158,0.547264,0.461713,0.381932,0.292538,0.178148,0.121279,0.071996,0.050828,0.022911,0.011199,0.004082,-0.000058,-0.003064,-0.004935,-0.008041,-0.012181,-0.016321,-0.020446,-0.024572,-0.027578,-0.030669,-0.033973,-0.035107,-0.035107,-0.035107]","[0.0002,0.0159,0.0317,0.0492,0.065,0.0827,0.0985,0.1163,0.1325,0.1493,0.1646,0.1815,0.1994,0.2158,0.2323,0.2493,0.2649,0.2818,0.2986,0.3158,0.3328,0.3489,0.3653,0.3827,0.3994,0.4156,0.4328,0.4493,0.4663,0.4818,0.4999,0.5166,0.5332,0.5486,0.5662,0.5829,0.5993,0.6156,0.6318,0.6482,0.6656,0.6817,0.6994,0.7167,0.7329,0.749,0.7657,0.783,0.7981,0.8149,0.8316,0.8502,0.8651,0.8823,0.8983,0.9151,0.933,0.9481,0.9656]","[1,1,1,1,1,1,1,1,1,1,1,1,1,1,1,1,1,1,1,1,1,1,1,2,2,2,2,2,2,2,2,2,2,2,2,2,2,2,2,2,2,2,2,2,2,2,2,2,2,2,2,2,2,2,2,2,2,2,2]",6,80.6241,4,45,0,45,0,1,,1,SV_6SxWlNLsoRj8nqK,304B,2022-06-01_13h57.00.033,implicit_time,2021.1.4,MacIntel,60.0024001
control,105,0,0,10,NA,0,NA,0,1,0.5,FALSE,baseline,1,"[-0.012538,-0.012538,-0.012538,-0.012538,-0.012538,-0.012538,-0.012538,-0.012538,-0.012538,-0.012538,-0.012538,-0.012538,-0.012538,-0.012538,-0.012538,-0.012538,-0.012538,-0.012538,-0.012538,-0.021273,-0.042151,-0.082986,-0.127059,-0.158324,-0.188934,-0.203745,-0.212603,-0.219335,-0.222923,-0.223692,-0.223692,-0.223692,-0.192684,-0.152029,-0.100294,-0.048958,-0.020295]","[0.032353,0.032353,0.032353,0.032353,0.032353,0.032353,0.032353,0.032353,0.032353,0.032353,0.032353,0.032353,0.032353,0.032353,0.032353,0.032353,0.032353,0.032353,0.050601,0.089676,0.176036,0.338291,0.539523,0.688451,0.838854,0.911319,0.950054,0.978992,0.99256,0.996913,0.996913,0.957852,0.757287,0.541891,0.317804,0.116969,-0.008834]","[0.0003,0.0156,0.0338,0.0487,0.0653,0.0833,0.1001,0.1165,0.1322,0.1492,0.1652,0.182,0.1998,0.2165,0.2321,0.2495,0.2667,0.2826,0.2988,0.3157,0.3336,0.3489,0.3664,0.3834,0.4008,0.4168,0.4334,0.4494,0.4662,0.4838,0.4989,0.5156,0.5334,0.5484,0.567,0.5836,0.6002]","[1,1,1,1,1,1,1,1,1,1,1,1,1,1,1,1,1,1,1,1,1,1,1,1,1,1,2,2,2,2,2,2,2,2,2,2,2]",7,81.7413,4,46,0,46,0,1,,1,SV_6SxWlNLsoRj8nqK,304B,2022-06-01_13h57.00.033,implicit_time,2021.1.4,MacIntel,60.0024001
control,112.5,0,0,10,NA,0,NA,0,0,0.5,FALSE,baseline,0,"[-0.002265,-0.002265,-0.002265,-0.002265,-0.002265,-0.002265,-0.002265,-0.002265,-0.002265,-0.002265,-0.002265,-0.002265,-0.002265,-0.002265,-0.002265,-0.002265,-0.002265,-0.002265,-0.002265,-0.002265,-0.002265,-0.002265,-0.002265,-0.002265,-0.002265,-0.022773,-0.066618,-0.147196,-0.264176,-0.369478,-0.435474,-0.477002,-0.49713,-0.511951,-0.515824,-0.516461,-0.512758,-0.485889,-0.454861,-0.418441,-0.374767,-0.335194,-0.308192,-0.278029,-0.253676,-0.230908,-0.206223,-0.182411,-0.156359,-0.129072,-0.105079,-0.090487,-0.076739,-0.068327,-0.064216,-0.06207,-0.06056,-0.059801,-0.058975,-0.057332,-0.05568,-0.05306,-0.04893,-0.045626,-0.040461,-0.033957,-0.027463,-0.021909,-0.016136,-0.01231,-0.0095,-0.007582]","[0.001714,0.001714,0.001714,0.001714,0.001714,0.001714,0.001714,0.001714,0.001714,0.001714,0.001714,0.001714,0.001714,0.001714,0.001714,0.001714,0.001714,0.001714,0.001714,0.001714,0.001714,0.001714,0.001714,0.001714,0.004252,0.034877,0.109554,0.258128,0.490934,0.733311,0.901238,1.026291,1.086392,1.128813,1.143034,1.143984,1.122547,1.038002,0.942738,0.839662,0.726974,0.63137,0.574884,0.513265,0.468363,0.434363,0.401611,0.371936,0.339185,0.308616,0.278714,0.262012,0.24626,0.235145,0.226524,0.221052,0.214274,0.204066,0.194226,0.18416,0.174263,0.162623,0.153988,0.144092,0.135032,0.122555,0.108788,0.094851,0.077582,0.060412,0.045128,0.027859]","[0.0003,0.0152,0.0333,0.0492,0.0657,0.0828,0.0997,0.116,0.1326,0.1489,0.1668,0.1832,0.2001,0.2164,0.233,0.2498,0.2655,0.2833,0.2987,0.3166,0.3318,0.3498,0.3654,0.3834,0.3989,0.4159,0.4336,0.4489,0.4658,0.4824,0.4987,0.5154,0.5333,0.5488,0.5656,0.5826,0.599,0.6167,0.632,0.6502,0.6654,0.6832,0.6984,0.7163,0.7328,0.7488,0.7671,0.7821,0.7998,0.8169,0.8336,0.8501,0.8658,0.8827,0.8988,0.9159,0.9325,0.9498,0.9659,0.9823,0.9991,1.0153,1.032,1.0485,1.0671,1.0829,1.0985,1.1161,1.1333,1.1503,1.1672,1.1832]","[1,1,1,1,1,1,1,1,1,1,1,1,1,1,1,1,1,1,1,1,1,1,1,1,1,1,1,1,1,1,2,2,2,2,2,2,2,2,2,2,2,2,2,2,2,2,2,2,2,2,2,2,2,2,2,2,2,2,2,2,2,2,2,2,2,2,2,2,2,2,2,2]",7,83.9078,4,47,0,47,0,1,,1,SV_6SxWlNLsoRj8nqK,304B,2022-06-01_13h57.00.033,implicit_time,2021.1.4,MacIntel,60.0024001
control,105,0,0,10,NA,0,NA,0,1,0.5,FALSE,baseline,1,"[-0.005731,-0.005731,-0.005731,-0.005731,-0.005731,-0.005731,-0.005731,-0.005731,-0.005731,-0.005731,-0.005731,-0.005731,-0.005731,-0.005731,-0.005731,-0.005731,-0.005731,-0.005731,-0.005731,-0.005731,-0.005731,-0.008341,-0.023096,-0.063209,-0.12497,-0.200004,-0.255052,-0.298717,-0.318399,-0.332137,-0.336542,-0.336542,-0.325652,-0.307869,-0.267291,-0.240868,-0.193121,-0.169024,-0.156909,-0.143294,-0.135889,-0.126964,-0.121828,-0.117289,-0.111944,-0.105203,-0.097759,-0.089708,-0.081761,-0.073235,-0.064444,-0.058538,-0.052766,-0.04742,-0.044382,-0.042303,-0.040243,-0.036844,-0.033179,-0.02864,-0.02283,-0.017456,-0.010848]","[-0.031052,-0.031052,-0.031052,-0.031052,-0.031052,-0.031052,-0.031052,-0.031052,-0.031052,-0.031052,-0.031052,-0.031052,-0.031052,-0.031052,-0.031052,-0.031052,-0.031052,-0.031052,-0.031052,-0.031052,-0.015427,0.021705,0.079042,0.231572,0.442742,0.691627,0.857371,0.969124,1.022987,1.057043,1.068556,1.051981,0.979049,0.903677,0.74369,0.638856,0.440417,0.3353,0.274617,0.211439,0.178233,0.143851,0.122371,0.108788,0.096793,0.082346,0.069784,0.053209,0.036834,0.016091,-0.006906,-0.022814,-0.040083,-0.05205,-0.058855,-0.062995,-0.066086,-0.068057,-0.068057,-0.068057,-0.061804,-0.051057,-0.03851]","[0.0003,0.0151,0.0328,0.0495,0.0667,0.0831,0.0987,0.1166,0.132,0.1498,0.1663,0.1832,0.1992,0.2155,0.2318,0.2499,0.2664,0.283,0.2983,0.3152,0.333,0.3502,0.365,0.3832,0.3991,0.4162,0.4323,0.4496,0.4667,0.4823,0.4988,0.5166,0.5322,0.5491,0.5656,0.5823,0.6002,0.615,0.6326,0.6495,0.6665,0.6823,0.6985,0.7163,0.7324,0.75,0.7665,0.7837,0.8001,0.8152,0.8329,0.849,0.866,0.8831,0.8987,0.9153,0.9322,0.9486,0.9661,0.9825,0.9994,1.0152,1.0317]","[1,1,1,1,1,1,1,1,1,1,1,1,1,1,1,1,1,1,1,1,1,1,1,1,1,1,1,2,2,2,2,2,2,2,2,2,2,2,2,2,2,2,2,2,2,2,2,2,2,2,2,2,2,2,2,2,2,2,2,2,2,2,2]",8,85.4565,4,48,0,48,0,1,,1,SV_6SxWlNLsoRj8nqK,304B,2022-06-01_13h57.00.033,implicit_time,2021.1.4,MacIntel,60.0024001
control,112.5,0,0,10,NA,0,NA,0,0,0.5,FALSE,baseline,0,"[0.006318,0.006318,0.006318,0.006318,0.006318,0.006318,0.006318,0.006318,0.006318,0.006318,0.006318,0.006318,0.006318,0.006318,0.006318,0.006318,0.006318,0.006318,0.006318,0.006318,0.006318,0.006318,0.006318,-0.019345,-0.096601,-0.152979,-0.242985,-0.323602,-0.377264,-0.404626,-0.422087,-0.426274,-0.425305,-0.386074,-0.281133,-0.147567,-0.045474,0.056932,0.105562,0.135678,0.16663,0.184413,0.18954,0.196053,0.198066,0.199319,0.200572,0.200572,0.200572,0.200572,0.200572,0.199414,0.196357,0.190964,0.186625,0.181232,0.173371,0.165101,0.153746,0.138498,0.116975,0.105088,0.084219,0.075902,0.068193,0.061784,0.057227,0.051834,0.04645,0.042444,0.038551,0.037222,0.036586,0.035883,0.03519,0.03276,0.028202,0.020977,0.008957,-0.003072]","[0.027065,0.027065,0.027065,0.027065,0.027065,0.027065,0.027065,0.027065,0.027065,0.027065,0.027065,0.027065,0.027065,0.027065,0.027065,0.027065,0.027065,0.027065,0.027065,0.027065,0.027065,0.027065,0.027065,0.085125,0.236251,0.351732,0.536276,0.70538,0.824392,0.883657,0.921981,0.930687,0.913247,0.804968,0.543663,0.246771,0.019309,-0.227194,-0.349722,-0.427844,-0.504747,-0.547409,-0.556597,-0.569003,-0.572008,-0.57388,-0.57388,-0.574816,-0.574816,-0.574816,-0.574816,-0.573086,-0.566252,-0.555505,-0.545226,-0.533146,-0.517181,-0.498679,-0.4732,-0.437102,-0.379255,-0.337741,-0.266878,-0.233234,-0.206919,-0.182957,-0.169346,-0.155934,-0.143868,-0.136765,-0.130952,-0.127932,-0.126032,-0.122998,-0.118843,-0.110464,-0.096853,-0.076862,-0.046322,-0.015739]","[0.0002,0.0165,0.0335,0.0487,0.0662,0.0835,0.1,0.1155,0.1322,0.1503,0.1653,0.1833,0.199,0.2154,0.2334,0.2495,0.2665,0.2834,0.2997,0.3169,0.3319,0.3489,0.3667,0.3823,0.4,0.4158,0.4323,0.4494,0.4669,0.4821,0.4987,0.5169,0.5327,0.5504,0.5663,0.5831,0.6004,0.6165,0.6339,0.6495,0.6654,0.6834,0.6988,0.7155,0.7333,0.7502,0.7669,0.7838,0.7986,0.8172,0.8336,0.8497,0.8668,0.8831,0.9001,0.9158,0.9339,0.9507,0.9665,0.9832,0.9988,1.0158,1.0328,1.0504,1.0669,1.0839,1.0996,1.1169,1.1336,1.1497,1.1664,1.1821,1.1993,1.2161,1.2336,1.2504,1.2662,1.2823,1.3005,1.3165]","[1,1,1,1,1,1,1,1,1,1,1,1,1,1,1,1,1,1,1,1,1,1,1,1,1,1,1,1,1,2,2,2,2,2,2,2,2,2,2,2,2,2,2,2,2,2,2,2,2,2,2,2,2,2,2,2,2,2,2,2,2,2,2,2,2,2,2,2,2,2,2,2,2,2,2,2,2,2,2,2]",8,87.2912,4,49,0,49,0,1,,1,SV_6SxWlNLsoRj8nqK,304B,2022-06-01_13h57.00.033,implicit_time,2021.1.4,MacIntel,60.0024001
