condition_label,target,rotation_deg,cursorjump,targetjump,arrow_offset,aiming_target,aiming_direction,aiming_type,feedback_type,hold_duration,hold_target,phase,trialtype,mousex_rel,mousey_rel,mouse_time,step,points,cumulativetime,version,trials.thisRepN,trials.thisTrialN,trials.thisN,trials.thisIndex,trials.ran,participant,condition,qualtrics,group,date,expName,psychopyVersion,OS,frameRate
control,105,0,0,10,NA,0,NA,0,1,0.5,FALSE,practice,1,"[-0.002083,-0.002083,-0.002083,-0.002083,-0.002083,0,0.002083,0.002083,0.004167,0.004167,0.004167,0.00625,0.00625,0.008333,0.008333,0.008333,0.008333,0.008333,0.008333,0.008333,0.008333,0.008333,0.008333,0.008333,0.008333,0.008333,0.008333,0.008333,0.008333,0.008333,0.008333,0.008333,0.008333,0.008333,0.008333,0.008333,0.008333,0.008333,0.008333,0.008333,0.008333,0.00625,0,-0.010417,-0.016667,-0.029167,-0.035417,-0.05,-0.066667,-0.072917,-0.085417,-0.095833,-0.1,-0.102083,-0.097917,-0.095833,-0.089583,-0.085417,-0.085417,-0.085417,-0.091667,-0.09375,-0.1,-0.110417,-0.120833,-0.127083,-0.1375,-0.141667,-0.15,-0.160417,-0.172917,-0.179167,-0.19375,-0.2,-0.2125,-0.225,-0.23125,-0.24375,-0.252083,-0.25625,-0.2625,-0.266667,-0.275,-0.277083,-0.285417,-0.289583,-0.297917,-0.30625,-0.314583,-0.31875,-0.322917,-0.325,-0.329167,-0.33125,-0.335417,-0.3375,-0.341667,-0.34375,-0.345833,-0.345833,-0.341667,-0.341667,-0.3375,-0.335417,-0.329167,-0.316667,-0.30625,-0.304167,-0.3,-0.3,-0.297917,-0.297917,-0.297917,-0.297917,-0.295833,-0.29375,-0.29375,-0.29375,-0.29375,-0.29375,-0.29375,-0.291667,-0.291667,-0.291667,-0.291667,-0.289583,-0.289583,-0.289583,-0.2875,-0.283333,-0.279167,-0.270833,-0.2625,-0.25625,-0.235417,-0.222917,-0.2,-0.179167,-0.1625,-0.15625,-0.141667,-0.125,-0.11875,-0.10625,-0.095833,-0.091667,-0.083333,-0.077083,-0.075,-0.072917,-0.070833,-0.06875,-0.066667,-0.064583,-0.064583,-0.064583,-0.060417,-0.05625,-0.047917,-0.041667,-0.039583,-0.039583,-0.0375,-0.0375,-0.033333,-0.035417,-0.035417]","[0.001333,0.001333,0.001333,0.001333,0.001333,0.001333,0.001333,0.001333,0.001333,0.001333,0.001333,0.001333,0.001333,0.001333,0.001333,0.001333,0.001333,0.001333,0.001333,0.001333,0.001333,0.001333,0.001333,0.001333,0.001333,0.001333,0.001333,0.001333,0.001333,0.001333,0.001333,0.001333,0.001333,0.001333,0.001333,0.001333,0.001333,0.001333,0.001333,0.001333,0.001333,0.007556,0.016889,0.029333,0.035556,0.054222,0.060444,0.076,0.094667,0.104,0.122667,0.144444,0.166222,0.178667,0.200444,0.212889,0.234667,0.256444,0.275111,0.284444,0.3,0.306222,0.321778,0.340444,0.356,0.362222,0.374667,0.377778,0.390222,0.399556,0.415111,0.421333,0.436889,0.443111,0.458667,0.474222,0.483556,0.502222,0.524,0.536444,0.561333,0.586222,0.608,0.620444,0.645333,0.654667,0.679556,0.698222,0.72,0.726222,0.748,0.757333,0.779111,0.800889,0.819556,0.825778,0.844444,0.850667,0.866222,0.881778,0.897333,0.903556,0.919111,0.922222,0.934667,0.947111,0.956444,0.959556,0.962667,0.962667,0.962667,0.962667,0.962667,0.962667,0.962667,0.962667,0.962667,0.962667,0.962667,0.962667,0.959556,0.959556,0.956444,0.953333,0.953333,0.950222,0.944,0.940889,0.925333,0.912889,0.881778,0.844444,0.800889,0.779111,0.726222,0.695111,0.632889,0.564444,0.499111,0.468,0.412,0.365333,0.346667,0.312444,0.287556,0.278222,0.268889,0.262667,0.262667,0.259556,0.259556,0.256444,0.250222,0.240889,0.234667,0.222222,0.203556,0.194222,0.172444,0.147556,0.135111,0.107111,0.082222,0.066667,0.044889,0.023111,0.013778]","[0.0004,0.0206,0.0325,0.0494,0.0662,0.0829,0.0996,0.1163,0.133,0.1495,0.1663,0.1829,0.1996,0.2164,0.233,0.2498,0.2663,0.283,0.2997,0.3164,0.333,0.3496,0.3664,0.3831,0.3999,0.4166,0.4333,0.4504,0.4665,0.4832,0.5,0.5168,0.5335,0.5499,0.5666,0.5834,0.6002,0.6168,0.6335,0.6502,0.6668,0.6834,0.7001,0.7165,0.7336,0.7503,0.7666,0.7836,0.8003,0.8168,0.8337,0.8505,0.8671,0.8836,0.9003,0.917,0.9339,0.9505,0.9672,0.9834,1.0005,1.0166,1.0339,1.0506,1.0672,1.0839,1.1008,1.1167,1.1334,1.1503,1.1671,1.1838,1.2002,1.2168,1.2336,1.2506,1.2668,1.2835,1.3005,1.317,1.3337,1.3503,1.3669,1.3836,1.4006,1.4171,1.4338,1.4506,1.4674,1.4837,1.5006,1.5174,1.5342,1.5508,1.5677,1.5841,1.6007,1.618,1.6337,1.6504,1.6677,1.6842,1.7009,1.718,1.7346,1.751,1.768,1.7838,1.8005,1.8171,1.8339,1.8506,1.8672,1.8838,1.9007,1.9174,1.934,1.9507,1.9673,1.984,2.0008,2.0175,2.0342,2.0507,2.0674,2.0842,2.1008,2.1176,2.1343,2.1508,2.1674,2.1846,2.201,2.2184,2.2345,2.251,2.2677,2.2845,2.301,2.3177,2.3344,2.3511,2.3679,2.3846,2.4012,2.4179,2.4346,2.4513,2.4678,2.4847,2.5013,2.518,2.5347,2.5514,2.5678,2.5848,2.6015,2.618,2.6346,2.6514,2.6679,2.6849,2.7015,2.7181,2.7348,2.7515,2.7682]","[1,1,1,1,1,1,1,1,1,1,1,1,1,1,1,1,1,1,1,1,1,1,1,1,1,1,1,1,1,1,1,1,1,1,1,1,1,1,1,1,1,1,1,1,1,1,1,1,1,1,1,1,1,1,1,1,1,1,1,1,1,1,1,1,1,1,1,1,1,1,1,1,1,1,1,1,1,1,1,1,1,1,1,1,1,1,1,1,1,1,1,1,1,1,1,1,1,1,1,1,2,2,2,2,2,2,2,2,2,2,2,2,2,2,2,2,2,2,2,2,2,2,2,2,2,2,2,2,2,2,2,2,2,2,2,2,2,2,2,2,2,2,2,2,2,2,2,2,2,2,2,2,2,2,2,2,2,2,2,2,2,2,2,2,2,2,2]",0,17.3684,4,0,0,0,0,1,236185,1,SV_6SxWlNLsoRj8nqK,304B,2022-07-29_10h08.48.954,implicit_time,2021.1.4,Linux x86_64,59.95563283
control,112.5,0,0,10,NA,0,NA,0,0,0.5,FALSE,practice,0,"[-0.020833,-0.020833,-0.020833,-0.020833,-0.020833,-0.020833,-0.020833,-0.01875,-0.01875,-0.01875,-0.016667,-0.014583,-0.0125,-0.0125,-0.010417,-0.010417,-0.010417,-0.010417,-0.010417,-0.010417,-0.010417,-0.010417,-0.010417,-0.010417,-0.0125,-0.0125,-0.0125,-0.0125,-0.0125,-0.014583,-0.01875,-0.027083,-0.03125,-0.045833,-0.058333,-0.064583,-0.079167,-0.095833,-0.104167,-0.122917,-0.14375,-0.154167,-0.175,-0.197917,-0.208333,-0.229167,-0.245833,-0.252083,-0.264583,-0.28125,-0.2875,-0.302083,-0.314583,-0.31875,-0.327083,-0.3375,-0.341667,-0.352083,-0.360417,-0.364583,-0.370833,-0.375,-0.377083,-0.38125,-0.385417,-0.385417,-0.391667,-0.397917,-0.402083,-0.4125,-0.422917,-0.4375,-0.445833,-0.458333,-0.464583,-0.475,-0.4875,-0.49375,-0.50625,-0.520833,-0.529167,-0.535417,-0.5375,-0.5375,-0.5375,-0.535417,-0.535417,-0.535417,-0.535417,-0.535417,-0.535417,-0.535417,-0.535417,-0.535417,-0.535417,-0.535417,-0.535417,-0.535417,-0.533333,-0.525,-0.508333,-0.497917,-0.479167,-0.458333,-0.45,-0.43125,-0.420833,-0.397917,-0.372917,-0.345833,-0.333333,-0.30625,-0.29375,-0.270833,-0.25,-0.235417,-0.227083,-0.2125,-0.202083,-0.195833,-0.1875,-0.18125,-0.177083,-0.170833,-0.16875,-0.164583,-0.1625,-0.1625,-0.160417,-0.160417,-0.160417,-0.160417,-0.160417,-0.160417,-0.158333,-0.158333,-0.154167,-0.152083,-0.14375,-0.133333,-0.127083,-0.11875,-0.114583,-0.10625,-0.097917,-0.09375,-0.091667,-0.091667,-0.089583,-0.089583,-0.089583,-0.089583,-0.0875,-0.085417,-0.08125,-0.079167,-0.072917,-0.066667,-0.0625,-0.05625,-0.054167,-0.052083,-0.05,-0.04375,-0.039583]","[-0.004889,-0.004889,-0.004889,-0.004889,-0.001778,-0.001778,0.001333,0.004444,0.007556,0.007556,0.010667,0.010667,0.013778,0.016889,0.016889,0.016889,0.016889,0.016889,0.016889,0.016889,0.016889,0.016889,0.016889,0.016889,0.016889,0.02,0.02,0.02,0.02,0.023111,0.032444,0.048,0.060444,0.088444,0.128889,0.153778,0.209778,0.272,0.303111,0.368444,0.424444,0.449333,0.496,0.530222,0.545778,0.573778,0.592444,0.601778,0.614222,0.626667,0.629778,0.639111,0.645333,0.648444,0.654667,0.660889,0.664,0.670222,0.679556,0.682667,0.688889,0.695111,0.698222,0.701333,0.707556,0.710667,0.716889,0.723111,0.726222,0.735556,0.748,0.760444,0.769778,0.785333,0.794667,0.813333,0.832,0.841333,0.86,0.884889,0.894222,0.903556,0.903556,0.900444,0.900444,0.897333,0.894222,0.894222,0.891111,0.891111,0.891111,0.891111,0.891111,0.891111,0.891111,0.894222,0.894222,0.891111,0.891111,0.875556,0.850667,0.832,0.791556,0.738667,0.707556,0.642222,0.608,0.539556,0.468,0.402667,0.368444,0.303111,0.275111,0.216,0.163111,0.119556,0.100889,0.069778,0.041778,0.032444,0.010667,-0.011111,-0.020444,-0.039111,-0.048444,-0.060889,-0.070222,-0.073333,-0.076444,-0.076444,-0.076444,-0.076444,-0.076444,-0.076444,-0.076444,-0.079556,-0.079556,-0.079556,-0.079556,-0.076444,-0.073333,-0.070222,-0.067111,-0.060889,-0.054667,-0.048444,-0.045333,-0.042222,-0.039111,-0.036,-0.029778,-0.026667,-0.023556,-0.020444,-0.014222,-0.011111,-0.004889,0.001333,0.001333,0.004444,0.007556,0.007556,0.007556,0.004444,0.004444]","[0.0003,0.0173,0.0343,0.051,0.0676,0.0839,0.1005,0.1167,0.1336,0.1506,0.1669,0.1836,0.2001,0.2171,0.2336,0.2504,0.2669,0.2836,0.3006,0.3168,0.3335,0.3502,0.3668,0.3835,0.4002,0.417,0.4337,0.4503,0.4672,0.4835,0.5003,0.5171,0.5342,0.5509,0.5675,0.584,0.6009,0.6175,0.634,0.6508,0.6675,0.6849,0.701,0.7178,0.7352,0.7518,0.7682,0.7847,0.8013,0.8179,0.8342,0.8514,0.8679,0.8845,0.9013,0.9181,0.9345,0.9513,0.9684,0.985,1.0012,1.018,1.0344,1.0522,1.0683,1.0846,1.1014,1.1184,1.1355,1.1515,1.1681,1.1847,1.2014,1.2183,1.2347,1.2516,1.2683,1.285,1.3016,1.3183,1.3348,1.3516,1.3683,1.3847,1.4015,1.4181,1.4349,1.4515,1.4682,1.4849,1.5015,1.5183,1.5349,1.5516,1.5684,1.585,1.6019,1.6183,1.6354,1.6518,1.6686,1.6851,1.7017,1.7187,1.7351,1.752,1.7686,1.7853,1.8021,1.8188,1.8354,1.8519,1.8687,1.8852,1.9019,1.9185,1.9355,1.9518,1.9686,1.9854,2.0019,2.0186,2.0353,2.0524,2.0689,2.0854,2.102,2.1187,2.1354,2.152,2.1687,2.1848,2.2019,2.219,2.2355,2.2522,2.269,2.2858,2.3024,2.3189,2.3357,2.3523,2.369,2.3857,2.4023,2.4191,2.4359,2.4523,2.4691,2.4857,2.5025,2.5192,2.5359,2.5524,2.5691,2.5853,2.6025,2.6191,2.6359,2.6522,2.669,2.6862,2.7027,2.719,2.7359]","[1,1,1,1,1,1,1,1,1,1,1,1,1,1,1,1,1,1,1,1,1,1,1,1,1,1,1,1,1,1,1,1,1,1,1,1,1,1,1,1,1,1,1,1,1,1,1,1,1,1,1,1,1,1,1,1,1,1,1,1,1,1,1,1,1,1,1,1,1,1,1,1,1,1,1,1,2,2,2,2,2,2,2,2,2,2,2,2,2,2,2,2,2,2,2,2,2,2,2,2,2,2,2,2,2,2,2,2,2,2,2,2,2,2,2,2,2,2,2,2,2,2,2,2,2,2,2,2,2,2,2,2,2,2,2,2,2,2,2,2,2,2,2,2,2,2,2,2,2,2,2,2,2,2,2,2,2,2,2,2,2,2,2,2,2]",0,21.055,4,1,0,1,0,1,236185,1,SV_6SxWlNLsoRj8nqK,304B,2022-07-29_10h08.48.954,implicit_time,2021.1.4,Linux x86_64,59.95563283
control,45,0,0,10,NA,0,NA,0,1,0.5,FALSE,practice,1,"[0.029167,0.027083,0.027083,0.027083,0.027083,0.025,0.022917,0.022917,0.020833,0.020833,0.020833,0.01875,0.01875,0.016667,0.016667,0.014583,0.014583,0.014583,0.014583,0.014583,0.014583,0.014583,0.014583,0.016667,0.025,0.05,0.06875,0.114583,0.1375,0.177083,0.214583,0.260417,0.283333,0.327083,0.34375,0.366667,0.379167,0.385417,0.385417,0.3875,0.3875,0.385417,0.377083,0.370833,0.3625,0.358333,0.35625,0.3625,0.3875,0.408333,0.45625,0.5,0.520833,0.564583,0.6125,0.635417,0.672917,0.702083,0.714583,0.733333,0.74375,0.745833,0.745833,0.745833,0.745833,0.74375,0.74375,0.74375,0.74375,0.74375,0.74375,0.74375,0.74375,0.74375,0.74375,0.74375,0.74375,0.7375,0.720833,0.708333,0.677083,0.6375,0.589583,0.560417,0.491667,0.45625,0.3875,0.335417,0.3,0.283333,0.254167,0.241667,0.222917,0.216667,0.216667,0.216667,0.21875,0.21875,0.214583,0.208333,0.19375,0.185417,0.164583,0.15625,0.1375,0.120833,0.104167,0.097917,0.089583,0.085417,0.08125,0.075,0.072917,0.06875,0.066667,0.066667,0.064583,0.064583,0.064583,0.0625,0.060417,0.058333,0.05,0.047917,0.0375]","[-0.023556,-0.020444,-0.020444,-0.020444,-0.020444,-0.020444,-0.017333,-0.017333,-0.017333,-0.017333,-0.017333,-0.017333,-0.014222,-0.014222,-0.014222,-0.011111,-0.011111,-0.011111,-0.011111,-0.011111,-0.011111,-0.011111,-0.011111,-0.011111,-0.004889,0.010667,0.023111,0.060444,0.082222,0.128889,0.178667,0.231556,0.259556,0.309333,0.328,0.359111,0.380889,0.396444,0.402667,0.412,0.418222,0.424444,0.433778,0.436889,0.443111,0.452444,0.458667,0.477333,0.505333,0.520889,0.561333,0.598667,0.614222,0.645333,0.673333,0.685778,0.707556,0.726222,0.732444,0.744889,0.751111,0.754222,0.754222,0.754222,0.754222,0.757333,0.757333,0.757333,0.757333,0.757333,0.757333,0.757333,0.757333,0.757333,0.757333,0.757333,0.757333,0.751111,0.738667,0.729333,0.698222,0.657778,0.611111,0.583111,0.527111,0.496,0.436889,0.387111,0.343556,0.324889,0.290667,0.278222,0.259556,0.247111,0.240889,0.240889,0.237778,0.237778,0.234667,0.225333,0.209778,0.200444,0.181778,0.172444,0.147556,0.125778,0.104,0.091556,0.072889,0.066667,0.054222,0.044889,0.041778,0.035556,0.032444,0.032444,0.032444,0.032444,0.029333,0.026222,0.02,0.016889,0.007556,0.004444,-0.004889]","[0.0002,0.016,0.0328,0.049,0.0661,0.0826,0.0994,0.1159,0.1326,0.1493,0.166,0.1827,0.1993,0.2161,0.2324,0.2494,0.2661,0.2827,0.2989,0.3161,0.3323,0.3494,0.3663,0.383,0.3996,0.4161,0.4329,0.4494,0.4665,0.4827,0.4994,0.5162,0.5331,0.5497,0.5665,0.5831,0.5996,0.616,0.6329,0.6498,0.6669,0.6832,0.7,0.7163,0.7331,0.7499,0.7677,0.7834,0.8003,0.8169,0.8333,0.85,0.867,0.8836,0.9002,0.917,0.9331,0.95,0.9669,0.9835,1.0004,1.0168,1.0331,1.0497,1.0665,1.0834,1.1,1.1168,1.1334,1.15,1.1668,1.1832,1.1998,1.2168,1.2333,1.2498,1.2668,1.2835,1.3002,1.3166,1.334,1.3506,1.3675,1.3838,1.4002,1.4173,1.434,1.4503,1.4673,1.4838,1.4997,1.5171,1.5338,1.5505,1.5674,1.5839,1.6003,1.6175,1.6335,1.6502,1.6679,1.6841,1.7009,1.7175,1.7333,1.7502,1.7677,1.7834,1.8003,1.8178,1.8334,1.8503,1.8669,1.8838,1.9003,1.9168,1.9337,1.9505,1.9672,1.9837,2.0004,2.0171,2.0337,2.0506,2.0671]","[1,1,1,1,1,1,1,1,1,1,1,1,1,1,1,1,1,1,1,1,1,1,1,1,1,1,1,1,1,1,1,1,1,1,1,1,1,1,1,1,1,1,1,1,1,1,1,1,1,1,1,1,1,1,1,1,2,2,2,2,2,2,2,2,2,2,2,2,2,2,2,2,2,2,2,2,2,2,2,2,2,2,2,2,2,2,2,2,2,2,2,2,2,2,2,2,2,2,2,2,2,2,2,2,2,2,2,2,2,2,2,2,2,2,2,2,2,2,2,2,2,2,2,2,2]",1,23.6403,4,2,0,2,0,1,236185,1,SV_6SxWlNLsoRj8nqK,304B,2022-07-29_10h08.48.954,implicit_time,2021.1.4,Linux x86_64,59.95563283
control,37.5,0,0,10,NA,0,NA,0,0,0.5,FALSE,practice,0,"[-0.01875,-0.01875,-0.01875,-0.01875,-0.016667,-0.016667,-0.016667,-0.014583,-0.014583,-0.014583,-0.0125,-0.0125,-0.0125,-0.0125,-0.0125,-0.0125,-0.0125,-0.0125,-0.0125,-0.0125,-0.010417,-0.004167,0.010417,0.01875,0.045833,0.079167,0.097917,0.135417,0.172917,0.191667,0.23125,0.252083,0.29375,0.33125,0.360417,0.372917,0.397917,0.410417,0.433333,0.454167,0.470833,0.477083,0.4875,0.489583,0.497917,0.50625,0.51875,0.525,0.5375,0.545833,0.566667,0.585417,0.60625,0.61875,0.65,0.666667,0.7,0.735417,0.766667,0.777083,0.78125,0.779167,0.779167,0.779167,0.777083,0.777083,0.777083,0.777083,0.777083,0.772917,0.766667,0.764583,0.760417,0.758333,0.74375,0.7125,0.6625,0.63125,0.560417,0.51875,0.429167,0.339583,0.2625,0.229167,0.16875,0.141667,0.09375,0.060417,0.039583,0.033333,0.029167,0.029167,0.029167,0.029167,0.029167,0.029167,0.029167,0.03125,0.03125,0.035417,0.0375,0.039583,0.04375,0.045833,0.05,0.054167,0.05625,0.060417,0.064583,0.064583,0.066667,0.066667,0.066667,0.060417,0.054167,0.047917,0.039583,0.03125,0.027083,0.022917,0.020833,0.020833,0.020833,0.020833,0.020833,0.022917,0.022917,0.020833,0.020833,0.022917,0.022917,0.025]","[0.026222,0.026222,0.026222,0.026222,0.023111,0.023111,0.023111,0.02,0.02,0.016889,0.016889,0.016889,0.016889,0.016889,0.016889,0.016889,0.016889,0.016889,0.016889,0.016889,0.016889,0.02,0.032444,0.038667,0.057333,0.082222,0.097778,0.132,0.175556,0.197333,0.244,0.268889,0.312444,0.349778,0.380889,0.396444,0.418222,0.430667,0.449333,0.464889,0.480444,0.489778,0.502222,0.508444,0.517778,0.530222,0.542667,0.552,0.567556,0.573778,0.589333,0.608,0.623556,0.632889,0.651556,0.660889,0.679556,0.701333,0.72,0.726222,0.729333,0.729333,0.729333,0.726222,0.726222,0.726222,0.726222,0.726222,0.729333,0.735556,0.741778,0.744889,0.748,0.748,0.744889,0.732444,0.707556,0.692,0.648444,0.623556,0.561333,0.499111,0.433778,0.402667,0.346667,0.321778,0.278222,0.247111,0.228444,0.222222,0.216,0.212889,0.216,0.216,0.216,0.216,0.216,0.216,0.216,0.216,0.219111,0.219111,0.219111,0.219111,0.219111,0.219111,0.219111,0.219111,0.216,0.216,0.209778,0.203556,0.200444,0.188,0.175556,0.169333,0.153778,0.138222,0.132,0.116444,0.104,0.100889,0.088444,0.079111,0.072889,0.066667,0.057333,0.054222,0.048,0.041778,0.038667,0.032444]","[0.0008,0.0161,0.0329,0.0494,0.0661,0.0826,0.0993,0.116,0.1328,0.1494,0.1661,0.1824,0.1996,0.2163,0.2324,0.2496,0.2662,0.2829,0.2997,0.3161,0.3332,0.3495,0.3661,0.3829,0.3997,0.417,0.4332,0.4496,0.4676,0.4832,0.4997,0.5169,0.5335,0.5501,0.5667,0.5835,0.6,0.6166,0.6335,0.6502,0.667,0.6835,0.7001,0.717,0.7332,0.7503,0.767,0.7833,0.8003,0.817,0.8336,0.8502,0.8671,0.8835,0.9004,0.9173,0.9336,0.9501,0.9671,0.984,1.0004,1.0171,1.0334,1.0501,1.0673,1.0838,1.1005,1.117,1.1336,1.15,1.1675,1.1839,1.2008,1.2169,1.2337,1.2506,1.2677,1.284,1.3001,1.3171,1.3337,1.3499,1.3672,1.3835,1.3998,1.4172,1.4342,1.4498,1.4676,1.4832,1.5002,1.5169,1.5333,1.5509,1.5666,1.5835,1.6017,1.6169,1.6337,1.6505,1.667,1.6837,1.7005,1.717,1.7337,1.7505,1.767,1.784,1.8004,1.8171,1.8338,1.8506,1.8672,1.884,1.9007,1.9173,1.9341,1.9505,1.9675,1.9841,2.0007,2.0173,2.0341,2.0507,2.0675,2.0842,2.1007,2.1174,2.1342,2.1509,2.1676,2.1843]","[1,1,1,1,1,1,1,1,1,1,1,1,1,1,1,1,1,1,1,1,1,1,1,1,1,1,1,1,1,1,1,1,1,1,1,1,1,1,1,1,1,1,1,1,1,1,1,1,1,1,1,1,1,1,1,1,2,2,2,2,2,2,2,2,2,2,2,2,2,2,2,2,2,2,2,2,2,2,2,2,2,2,2,2,2,2,2,2,2,2,2,2,2,2,2,2,2,2,2,2,2,2,2,2,2,2,2,2,2,2,2,2,2,2,2,2,2,2,2,2,2,2,2,2,2,2,2,2,2,2,2,2]",1,26.3424,4,3,0,3,0,1,236185,1,SV_6SxWlNLsoRj8nqK,304B,2022-07-29_10h08.48.954,implicit_time,2021.1.4,Linux x86_64,59.95563283
control,135,0,0,10,NA,0,NA,0,1,0.5,FALSE,practice,1,"[0.014583,0.014583,0.014583,0.016667,0.016667,0.016667,0.016667,0.014583,0.014583,0.0125,0.0125,0.0125,0.0125,0.0125,0.010417,0.010417,0.008333,0.00625,0.00625,0.004167,0.002083,0,0,0,-0.002083,-0.002083,-0.004167,-0.010417,-0.014583,-0.025,-0.033333,-0.054167,-0.08125,-0.116667,-0.1375,-0.18125,-0.204167,-0.25625,-0.310417,-0.366667,-0.395833,-0.445833,-0.466667,-0.504167,-0.541667,-0.575,-0.5875,-0.610417,-0.61875,-0.635417,-0.652083,-0.670833,-0.679167,-0.69375,-0.697917,-0.702083,-0.7,-0.7,-0.7,-0.7,-0.7,-0.697917,-0.697917,-0.7,-0.7,-0.702083,-0.702083,-0.702083,-0.697917,-0.685417,-0.677083,-0.652083,-0.6375,-0.602083,-0.564583,-0.54375,-0.495833,-0.44375,-0.391667,-0.36875,-0.325,-0.304167,-0.266667,-0.23125,-0.214583,-0.183333,-0.160417,-0.152083,-0.141667,-0.133333,-0.122917,-0.116667,-0.104167,-0.097917,-0.085417,-0.075,-0.064583,-0.058333,-0.04375,-0.035417,-0.025]","[-0.020444,-0.017333,-0.014222,-0.011111,-0.008,-0.001778,-0.001778,0.004444,0.007556,0.010667,0.010667,0.010667,0.013778,0.013778,0.013778,0.013778,0.013778,0.013778,0.013778,0.013778,0.013778,0.013778,0.013778,0.013778,0.013778,0.013778,0.013778,0.016889,0.016889,0.026222,0.035556,0.054222,0.079111,0.113333,0.135111,0.178667,0.203556,0.253333,0.303111,0.352889,0.374667,0.424444,0.449333,0.502222,0.552,0.598667,0.617333,0.657778,0.676444,0.707556,0.735556,0.760444,0.769778,0.791556,0.800889,0.807111,0.807111,0.807111,0.804,0.804,0.804,0.804,0.804,0.804,0.804,0.804,0.804,0.800889,0.794667,0.779111,0.769778,0.741778,0.726222,0.692,0.657778,0.636,0.598667,0.555111,0.508444,0.483556,0.430667,0.405778,0.352889,0.306222,0.284444,0.244,0.206667,0.188,0.16,0.135111,0.116444,0.107111,0.094667,0.085333,0.072889,0.060444,0.048,0.041778,0.029333,0.023111,0.010667]","[0.0008,0.0165,0.0325,0.0495,0.066,0.0826,0.0995,0.1164,0.1329,0.1496,0.166,0.1827,0.1996,0.2162,0.2327,0.2495,0.2662,0.2832,0.2994,0.3165,0.333,0.3496,0.3663,0.3828,0.3995,0.4164,0.4328,0.4495,0.4662,0.483,0.4997,0.5165,0.5332,0.5496,0.5664,0.5832,0.5997,0.6166,0.6333,0.6499,0.6665,0.6832,0.6998,0.7167,0.7332,0.7494,0.7669,0.7839,0.8002,0.8168,0.8334,0.8497,0.867,0.8858,0.8998,0.9166,0.9331,0.9497,0.9672,0.9838,0.9997,1.0165,1.033,1.0498,1.0673,1.0838,1.1005,1.1164,1.1332,1.1498,1.1676,1.1831,1.2,1.2168,1.2332,1.2499,1.2667,1.2849,1.301,1.3169,1.3334,1.3502,1.3667,1.3836,1.4,1.4169,1.4335,1.4502,1.467,1.4837,1.5003,1.5171,1.5338,1.5503,1.5669,1.5839,1.6007,1.6171,1.6338,1.6503,1.6672]","[1,1,1,1,1,1,1,1,1,1,1,1,1,1,1,1,1,1,1,1,1,1,1,1,1,1,1,1,1,1,1,1,1,1,1,1,1,1,1,1,1,1,1,1,1,1,1,1,1,1,2,2,2,2,2,2,2,2,2,2,2,2,2,2,2,2,2,2,2,2,2,2,2,2,2,2,2,2,2,2,2,2,2,2,2,2,2,2,2,2,2,2,2,2,2,2,2,2,2,2,2]",2,28.5273,4,4,0,4,0,1,236185,1,SV_6SxWlNLsoRj8nqK,304B,2022-07-29_10h08.48.954,implicit_time,2021.1.4,Linux x86_64,59.95563283
control,142.5,0,0,10,NA,0,NA,0,0,0.5,FALSE,practice,0,"[-0.010417,-0.0125,-0.0125,-0.014583,-0.014583,-0.014583,-0.014583,-0.016667,-0.016667,-0.016667,-0.016667,-0.016667,-0.016667,-0.016667,-0.016667,-0.016667,-0.016667,-0.014583,-0.014583,-0.014583,-0.014583,-0.016667,-0.01875,-0.025,-0.039583,-0.05,-0.075,-0.110417,-0.129167,-0.172917,-0.21875,-0.24375,-0.295833,-0.354167,-0.383333,-0.435417,-0.4875,-0.5125,-0.55625,-0.59375,-0.610417,-0.639583,-0.6625,-0.670833,-0.689583,-0.70625,-0.7125,-0.725,-0.733333,-0.735417,-0.741667,-0.747917,-0.75,-0.754167,-0.75625,-0.758333,-0.760417,-0.766667,-0.76875,-0.777083,-0.7875,-0.795833,-0.814583,-0.835417,-0.845833,-0.86875,-0.89375,-0.902083,-0.910417,-0.90625,-0.90625,-0.904167,-0.904167,-0.904167,-0.904167,-0.904167,-0.904167,-0.902083,-0.889583,-0.879167,-0.841667,-0.79375,-0.76875,-0.714583,-0.660417,-0.63125,-0.572917,-0.541667,-0.48125,-0.420833,-0.36875,-0.345833,-0.30625,-0.2875,-0.258333,-0.233333,-0.2125,-0.202083,-0.189583,-0.183333,-0.175,-0.170833,-0.16875,-0.166667,-0.1625,-0.160417,-0.15625,-0.154167,-0.15,-0.147917,-0.141667,-0.1375,-0.125,-0.110417,-0.097917,-0.089583,-0.077083,-0.070833,-0.060417,-0.052083,-0.04375,-0.039583]","[-0.017333,-0.017333,-0.014222,-0.014222,-0.014222,-0.014222,-0.011111,-0.011111,-0.011111,-0.008,-0.008,-0.008,-0.004889,-0.004889,-0.001778,-0.001778,0.001333,0.001333,0.001333,0.004444,0.004444,0.007556,0.010667,0.02,0.032444,0.041778,0.060444,0.088444,0.104,0.138222,0.175556,0.194222,0.234667,0.268889,0.287556,0.321778,0.352889,0.365333,0.390222,0.415111,0.424444,0.44,0.452444,0.458667,0.464889,0.471111,0.474222,0.483556,0.489778,0.492889,0.496,0.499111,0.499111,0.502222,0.505333,0.505333,0.508444,0.511556,0.514667,0.520889,0.527111,0.533333,0.545778,0.561333,0.570667,0.586222,0.604889,0.608,0.611111,0.611111,0.611111,0.608,0.608,0.608,0.608,0.611111,0.611111,0.614222,0.611111,0.604889,0.592444,0.570667,0.555111,0.524,0.483556,0.461778,0.418222,0.393333,0.349778,0.303111,0.259556,0.240889,0.200444,0.181778,0.147556,0.122667,0.100889,0.091556,0.079111,0.072889,0.066667,0.060444,0.057333,0.054222,0.051111,0.051111,0.044889,0.041778,0.035556,0.035556,0.029333,0.026222,0.023111,0.02,0.016889,0.016889,0.013778,0.013778,0.013778,0.013778,0.010667,0.010667]","[0.001,0.0162,0.0327,0.0492,0.066,0.0829,0.0996,0.1162,0.1326,0.1492,0.1661,0.1826,0.1995,0.2163,0.233,0.2494,0.2663,0.2827,0.2996,0.3165,0.3328,0.3493,0.3666,0.3828,0.3993,0.4164,0.4332,0.4503,0.4665,0.4832,0.5002,0.5165,0.5332,0.5499,0.5668,0.5838,0.6005,0.6167,0.6332,0.6496,0.6663,0.6838,0.7001,0.7171,0.733,0.7504,0.7668,0.7836,0.8005,0.8165,0.833,0.8503,0.8664,0.8838,0.8996,0.9174,0.9332,0.9499,0.9662,0.9839,1.0008,1.0165,1.0332,1.0499,1.0667,1.083,1.1061,1.1166,1.1337,1.1504,1.1665,1.184,1.1999,1.2169,1.2338,1.2504,1.2667,1.283,1.2998,1.3164,1.3332,1.3498,1.3666,1.3834,1.4,1.4165,1.4333,1.4501,1.467,1.4834,1.503,1.5167,1.5336,1.5504,1.5666,1.5835,1.6002,1.6168,1.6334,1.6503,1.667,1.6838,1.7003,1.7169,1.7336,1.7504,1.767,1.7837,1.8003,1.817,1.8338,1.8505,1.8673,1.8839,1.9005,1.9172,1.9337,1.9506,1.9673,1.9844,2.0005,2.0173]","[1,1,1,1,1,1,1,1,1,1,1,1,1,1,1,1,1,1,1,1,1,1,1,1,1,1,1,1,1,1,1,1,1,1,1,1,1,1,1,1,1,1,1,1,1,1,1,1,1,1,1,1,1,1,1,1,1,1,1,1,1,1,2,2,2,2,2,2,2,2,2,2,2,2,2,2,2,2,2,2,2,2,2,2,2,2,2,2,2,2,2,2,2,2,2,2,2,2,2,2,2,2,2,2,2,2,2,2,2,2,2,2,2,2,2,2,2,2,2,2,2,2]",2,31.0624,4,5,0,5,0,1,236185,1,SV_6SxWlNLsoRj8nqK,304B,2022-07-29_10h08.48.954,implicit_time,2021.1.4,Linux x86_64,59.95563283
control,75,0,0,10,NA,0,NA,0,1,0.5,FALSE,practice,1,"[0.020833,0.01875,0.016667,0.014583,0.014583,0.0125,0.008333,0.002083,0,-0.004167,-0.00625,-0.0125,-0.016667,-0.016667,-0.01875,-0.01875,-0.01875,-0.01875,-0.01875,-0.01875,-0.01875,-0.01875,-0.01875,-0.016667,-0.010417,-0.004167,-0.002083,0.004167,0.008333,0.022917,0.04375,0.0625,0.070833,0.08125,0.085417,0.091667,0.097917,0.102083,0.104167,0.108333,0.108333,0.110417,0.108333,0.108333,0.108333,0.116667,0.120833,0.125,0.127083,0.13125,0.135417,0.147917,0.152083,0.160417,0.160417,0.1625,0.1625,0.164583,0.16875,0.179167,0.191667,0.208333,0.216667,0.233333,0.239583,0.245833,0.25,0.252083,0.247917,0.23125,0.216667,0.183333,0.14375,0.125,0.085417,0.047917,0.029167,0,-0.020833,-0.029167,-0.045833,-0.054167,-0.058333,-0.060417,-0.060417,-0.058333,-0.054167,-0.047917,-0.04375,-0.035417,-0.027083,-0.025,-0.01875,-0.014583,-0.010417,-0.008333,-0.00625,-0.00625,-0.00625,-0.00625,-0.00625,-0.008333]","[-0.004889,-0.004889,-0.001778,-0.001778,-0.001778,0.001333,0.004444,0.007556,0.007556,0.010667,0.013778,0.013778,0.016889,0.016889,0.016889,0.016889,0.016889,0.016889,0.016889,0.016889,0.016889,0.016889,0.016889,0.023111,0.032444,0.051111,0.063556,0.097778,0.119556,0.166222,0.225333,0.287556,0.318667,0.380889,0.415111,0.480444,0.545778,0.608,0.639111,0.695111,0.723111,0.769778,0.807111,0.841333,0.856889,0.888,0.900444,0.925333,0.947111,0.968889,0.978222,1,1.009333,1.015556,1.015556,1.015556,1.012444,1.012444,1.012444,1.009333,1.009333,1.006222,1.006222,1,0.996889,0.990667,0.984444,0.981333,0.975111,0.965778,0.956444,0.922222,0.869333,0.838222,0.763556,0.682667,0.642222,0.558222,0.477333,0.436889,0.365333,0.3,0.272,0.225333,0.191111,0.178667,0.16,0.150667,0.147556,0.141333,0.138222,0.135111,0.128889,0.119556,0.113333,0.100889,0.085333,0.079111,0.063556,0.048,0.041778,0.032444]","[0.0009,0.0158,0.0325,0.0495,0.0658,0.0826,0.0992,0.1161,0.1328,0.1493,0.1657,0.1823,0.1991,0.2163,0.2327,0.2493,0.2661,0.2824,0.2992,0.3163,0.3331,0.3493,0.3681,0.383,0.3994,0.416,0.4328,0.4493,0.4661,0.4829,0.4993,0.516,0.5328,0.5496,0.5663,0.5827,0.5994,0.6162,0.633,0.6496,0.6661,0.6829,0.6995,0.7161,0.733,0.7498,0.7658,0.783,0.7992,0.816,0.8342,0.85,0.8669,0.889,0.908,0.9215,0.9329,0.9496,0.9662,0.9829,0.9996,1.0166,1.0327,1.0495,1.0662,1.0829,1.0997,1.1165,1.1334,1.1495,1.1664,1.1831,1.1998,1.2163,1.233,1.2499,1.2666,1.2832,1.2998,1.3165,1.3333,1.3498,1.3667,1.3833,1.4,1.4168,1.4332,1.45,1.4666,1.4835,1.5003,1.5167,1.5334,1.5502,1.567,1.5835,1.6001,1.6167,1.6335,1.6501,1.667,1.6837]","[1,1,1,1,1,1,1,1,1,1,1,1,1,1,1,1,1,1,1,1,1,1,1,1,1,1,1,1,1,1,1,1,1,1,1,1,1,1,1,1,1,1,1,1,1,1,1,1,1,2,2,2,2,2,2,2,2,2,2,2,2,2,2,2,2,2,2,2,2,2,2,2,2,2,2,2,2,2,2,2,2,2,2,2,2,2,2,2,2,2,2,2,2,2,2,2,2,2,2,2,2,2]",3,33.2642,4,6,0,6,0,1,236185,1,SV_6SxWlNLsoRj8nqK,304B,2022-07-29_10h08.48.954,implicit_time,2021.1.4,Linux x86_64,59.95563283
control,67.5,0,0,10,NA,0,NA,0,0,0.5,FALSE,practice,0,"[-0.008333,-0.008333,-0.008333,-0.008333,-0.008333,-0.008333,-0.008333,-0.008333,-0.008333,-0.008333,-0.008333,-0.008333,-0.008333,-0.008333,-0.008333,-0.008333,-0.008333,-0.008333,-0.008333,-0.008333,-0.008333,-0.008333,-0.00625,-0.00625,-0.004167,-0.002083,0.00625,0.0125,0.027083,0.05,0.08125,0.102083,0.152083,0.177083,0.227083,0.266667,0.304167,0.322917,0.354167,0.36875,0.39375,0.404167,0.402083,0.397917,0.383333,0.36875,0.364583,0.3625,0.360417,0.35625,0.352083,0.352083,0.35,0.35,0.347917,0.347917,0.347917,0.347917,0.347917,0.345833,0.335417,0.329167,0.304167,0.289583,0.25,0.208333,0.158333,0.102083,0.072917,0.016667,-0.008333,-0.05,-0.08125,-0.095833,-0.11875,-0.127083,-0.139583,-0.14375,-0.14375,-0.14375,-0.141667,-0.139583,-0.13125,-0.125,-0.122917,-0.120833,-0.11875,-0.11875,-0.116667,-0.1125,-0.1125,-0.108333,-0.10625,-0.104167,-0.1,-0.09375,-0.091667,-0.085417,-0.08125,-0.077083,-0.077083,-0.072917,-0.072917,-0.066667,-0.0625,-0.05625,-0.05625,-0.052083,-0.052083,-0.045833,-0.041667,-0.035417]","[0.004444,0.004444,0.004444,0.004444,0.004444,0.004444,0.004444,0.004444,0.004444,0.004444,0.004444,0.004444,0.004444,0.004444,0.004444,0.004444,0.004444,0.004444,0.004444,0.004444,0.004444,0.004444,0.007556,0.013778,0.023111,0.032444,0.054222,0.072889,0.119556,0.181778,0.262667,0.309333,0.408889,0.461778,0.567556,0.664,0.748,0.782222,0.847556,0.875556,0.925333,0.950222,0.953333,0.956444,0.959556,0.962667,0.965778,0.965778,0.965778,0.968889,0.968889,0.968889,0.972,0.972,0.972,0.972,0.972,0.972,0.972,0.959556,0.937778,0.922222,0.878667,0.853778,0.791556,0.72,0.639111,0.545778,0.499111,0.402667,0.352889,0.265778,0.191111,0.156889,0.104,0.082222,0.051111,0.038667,0.035556,0.035556,0.041778,0.044889,0.051111,0.057333,0.060444,0.060444,0.060444,0.060444,0.057333,0.054222,0.051111,0.048,0.044889,0.041778,0.035556,0.029333,0.029333,0.026222,0.023111,0.023111,0.023111,0.02,0.02,0.016889,0.013778,0.013778,0.010667,0.010667,0.007556,0.004444,0.004444,0.001333]","[0.0006,0.0165,0.033,0.0497,0.0664,0.0832,0.0996,0.116,0.1331,0.1494,0.1665,0.1832,0.1991,0.216,0.2334,0.2496,0.2666,0.2827,0.2993,0.3165,0.3333,0.3501,0.3672,0.3831,0.3996,0.4163,0.4332,0.4502,0.4667,0.4835,0.5004,0.5168,0.5334,0.55,0.5669,0.583,0.6004,0.617,0.6336,0.6504,0.667,0.6832,0.7014,0.7172,0.7339,0.7507,0.7674,0.7839,0.8005,0.8175,0.8341,0.8511,0.867,0.8835,0.9001,0.9174,0.9331,0.9511,0.9667,0.983,1.0004,1.0168,1.0354,1.0495,1.0666,1.0827,1.1074,1.1247,1.1333,1.1511,1.1674,1.1857,1.2006,1.2169,1.2335,1.2503,1.267,1.2837,1.3001,1.3169,1.3335,1.3505,1.3669,1.384,1.4005,1.417,1.4337,1.4502,1.4679,1.4838,1.5003,1.5169,1.5342,1.5505,1.5672,1.5838,1.6004,1.6173,1.6337,1.6506,1.6671,1.6839,1.7005,1.7172,1.7339,1.7507,1.7672,1.7839,1.8006,1.8172,1.8341,1.8508]","[1,1,1,1,1,1,1,1,1,1,1,1,1,1,1,1,1,1,1,1,1,1,1,1,1,1,1,1,1,1,1,1,1,1,1,1,1,1,1,1,2,2,2,2,2,2,2,2,2,2,2,2,2,2,2,2,2,2,2,2,2,2,2,2,2,2,2,2,2,2,2,2,2,2,2,2,2,2,2,2,2,2,2,2,2,2,2,2,2,2,2,2,2,2,2,2,2,2,2,2,2,2,2,2,2,2,2,2,2,2,2,2]",3,35.6326,4,7,0,7,0,1,236185,1,SV_6SxWlNLsoRj8nqK,304B,2022-07-29_10h08.48.954,implicit_time,2021.1.4,Linux x86_64,59.95563283
control,105,0,0,10,NA,0,NA,0,1,0.5,FALSE,practice,1,"[0.004167,0.00625,0.00625,0.00625,0.00625,0.00625,0.00625,0.00625,0.00625,0.00625,0.00625,0.00625,0.00625,0.00625,0.00625,0.00625,0.00625,0.004167,0.004167,0.002083,0.002083,0,0,-0.002083,-0.002083,-0.004167,-0.00625,-0.0125,-0.01875,-0.025,-0.035417,-0.05,-0.05625,-0.075,-0.09375,-0.102083,-0.116667,-0.13125,-0.141667,-0.158333,-0.170833,-0.172917,-0.179167,-0.185417,-0.191667,-0.20625,-0.216667,-0.21875,-0.225,-0.229167,-0.233333,-0.233333,-0.233333,-0.233333,-0.23125,-0.233333,-0.233333,-0.235417,-0.235417,-0.235417,-0.235417,-0.235417,-0.235417,-0.233333,-0.227083,-0.21875,-0.202083,-0.185417,-0.177083,-0.164583,-0.15,-0.14375,-0.127083,-0.11875,-0.1,-0.083333,-0.06875,-0.064583,-0.054167,-0.05,-0.041667,-0.035417,-0.029167,-0.027083,-0.022917,-0.022917,-0.01875,-0.0125,-0.00625,-0.004167,0.002083,0.004167,0.004167,0.00625,0.010417,0.0125,0.016667,0.01875,0.01875]","[-0.011111,-0.011111,-0.011111,-0.011111,-0.011111,-0.011111,-0.011111,-0.011111,-0.011111,-0.011111,-0.011111,-0.011111,-0.011111,-0.011111,-0.011111,-0.011111,-0.011111,-0.011111,-0.008,-0.001778,0.001333,0.010667,0.026222,0.035556,0.060444,0.097778,0.122667,0.175556,0.231556,0.262667,0.324889,0.384,0.415111,0.471111,0.530222,0.558222,0.611111,0.664,0.688889,0.732444,0.776,0.794667,0.832,0.86,0.875556,0.897333,0.919111,0.928444,0.950222,0.972,0.981333,1,1.006222,1.006222,1.006222,1.006222,1.003111,1.003111,1.003111,1.003111,1.003111,1.003111,1.003111,1,0.990667,0.981333,0.953333,0.916,0.891111,0.841333,0.782222,0.748,0.682667,0.648444,0.583111,0.520889,0.458667,0.430667,0.374667,0.349778,0.306222,0.268889,0.237778,0.222222,0.197333,0.188,0.169333,0.153778,0.138222,0.132,0.113333,0.107111,0.091556,0.076,0.060444,0.054222,0.044889,0.038667,0.029333]","[0.0006,0.0165,0.0328,0.0492,0.0662,0.0829,0.0994,0.1164,0.1329,0.1499,0.1658,0.1829,0.2001,0.2166,0.2327,0.2499,0.2667,0.2831,0.2999,0.3167,0.3334,0.3513,0.3669,0.3835,0.4002,0.4167,0.4335,0.4504,0.4668,0.4834,0.5005,0.5168,0.5335,0.5502,0.5668,0.5835,0.6003,0.617,0.6338,0.6504,0.6671,0.6836,0.7007,0.717,0.7339,0.7505,0.7672,0.7837,0.8006,0.82,0.8342,0.8506,0.8672,0.8837,0.9007,0.9171,0.9341,0.9506,0.9674,0.984,1.0007,1.0174,1.0341,1.0511,1.0673,1.0841,1.1012,1.1177,1.1342,1.151,1.1673,1.1841,1.201,1.2174,1.2342,1.2512,1.2677,1.2842,1.3014,1.3176,1.3344,1.3512,1.3677,1.3844,1.4016,1.4178,1.4344,1.4513,1.4679,1.4846,1.5015,1.5179,1.5345,1.5514,1.5679,1.5846,1.6017,1.6182,1.6346]","[1,1,1,1,1,1,1,1,1,1,1,1,1,1,1,1,1,1,1,1,1,1,1,1,1,1,1,1,1,1,1,1,1,1,1,1,1,1,1,1,1,1,1,1,1,1,1,1,2,2,2,2,2,2,2,2,2,2,2,2,2,2,2,2,2,2,2,2,2,2,2,2,2,2,2,2,2,2,2,2,2,2,2,2,2,2,2,2,2,2,2,2,2,2,2,2,2,2,2]",4,37.7845,4,8,0,8,0,1,236185,1,SV_6SxWlNLsoRj8nqK,304B,2022-07-29_10h08.48.954,implicit_time,2021.1.4,Linux x86_64,59.95563283
control,97.5,0,0,10,NA,0,NA,0,0,0.5,FALSE,practice,0,"[0.0125,0.00625,0.004167,0,-0.004167,-0.00625,-0.008333,-0.010417,-0.0125,-0.0125,-0.0125,-0.0125,-0.0125,-0.0125,-0.0125,-0.0125,-0.0125,-0.0125,-0.0125,-0.0125,-0.0125,-0.0125,-0.0125,-0.0125,-0.010417,-0.010417,-0.010417,-0.010417,-0.010417,-0.010417,-0.008333,-0.008333,-0.008333,-0.008333,-0.008333,-0.00625,-0.008333,-0.010417,-0.016667,-0.025,-0.03125,-0.03125,-0.03125,-0.033333,-0.041667,-0.052083,-0.05625,-0.058333,-0.054167,-0.054167,-0.054167,-0.058333,-0.0625,-0.064583,-0.066667,-0.064583,-0.064583,-0.064583,-0.064583,-0.0625,-0.058333,-0.05625,-0.054167,-0.052083,-0.052083,-0.052083,-0.052083,-0.052083,-0.052083,-0.054167,-0.058333,-0.060417,-0.066667,-0.077083,-0.083333,-0.089583,-0.089583,-0.089583,-0.0875,-0.089583,-0.089583,-0.091667,-0.091667,-0.09375,-0.09375,-0.09375,-0.09375,-0.09375,-0.09375,-0.09375,-0.09375,-0.09375,-0.09375,-0.091667,-0.0875,-0.077083,-0.066667,-0.066667,-0.06875,-0.072917,-0.075,-0.072917,-0.070833,-0.075,-0.077083,-0.083333,-0.085417,-0.085417,-0.083333,-0.08125,-0.08125,-0.079167,-0.077083,-0.075,-0.06875,-0.064583,-0.0625,-0.058333,-0.058333,-0.05625,-0.054167,-0.054167,-0.054167,-0.052083,-0.05,-0.047917,-0.045833,-0.041667,-0.039583,-0.035417,-0.033333,-0.029167,-0.025,-0.020833]","[0.010667,0.010667,0.010667,0.010667,0.007556,0.007556,0.007556,0.007556,0.007556,0.007556,0.007556,0.007556,0.007556,0.007556,0.007556,0.007556,0.007556,0.007556,0.007556,0.007556,0.007556,0.007556,0.007556,0.007556,0.007556,0.007556,0.004444,0.004444,0.004444,0.004444,0.004444,0.004444,0.004444,0.007556,0.02,0.026222,0.051111,0.066667,0.107111,0.156889,0.219111,0.256444,0.337333,0.377778,0.461778,0.542667,0.614222,0.645333,0.701333,0.726222,0.769778,0.800889,0.825778,0.835111,0.847556,0.853778,0.853778,0.853778,0.850667,0.847556,0.841333,0.835111,0.822667,0.810222,0.797778,0.794667,0.788444,0.788444,0.788444,0.791556,0.800889,0.807111,0.825778,0.853778,0.872444,0.916,0.972,0.993778,1.021778,1.024889,1.021778,1.021778,1.021778,1.018667,1.018667,1.018667,1.018667,1.018667,1.018667,1.018667,1.018667,1.021778,1.021778,1.015556,1.009333,0.975111,0.925333,0.86,0.822667,0.744889,0.704444,0.620444,0.536444,0.455556,0.415111,0.346667,0.315556,0.262667,0.219111,0.188,0.175556,0.156889,0.153778,0.144444,0.141333,0.138222,0.135111,0.132,0.128889,0.122667,0.116444,0.107111,0.104,0.094667,0.091556,0.079111,0.069778,0.063556,0.057333,0.051111,0.048,0.041778,0.035556,0.029333]","[0.0006,0.017,0.0328,0.0498,0.0663,0.083,0.0998,0.1162,0.1329,0.1493,0.1662,0.1825,0.1992,0.2156,0.2329,0.2502,0.2666,0.2827,0.3002,0.3159,0.3324,0.3498,0.3665,0.3827,0.4,0.4165,0.4332,0.4501,0.4665,0.4831,0.5002,0.5165,0.5333,0.5503,0.5669,0.5836,0.6002,0.6173,0.634,0.6509,0.6673,0.6841,0.7008,0.7175,0.7341,0.7512,0.7675,0.7841,0.802,0.8179,0.8343,0.8511,0.8678,0.8844,0.9013,0.9179,0.9344,0.9507,0.9673,0.9845,1.0025,1.018,1.0345,1.0513,1.0678,1.0845,1.1016,1.1179,1.134,1.151,1.168,1.1847,1.2014,1.2182,1.2359,1.2517,1.2683,1.2848,1.3016,1.3182,1.335,1.3517,1.3682,1.3844,1.4017,1.4179,1.4344,1.4513,1.4757,1.4855,1.5029,1.5262,1.5359,1.5521,1.5686,1.5867,1.6022,1.6188,1.6352,1.6521,1.6687,1.6854,1.7021,1.7188,1.7353,1.7523,1.7688,1.7849,1.8018,1.8185,1.835,1.8518,1.8683,1.8862,1.9018,1.9185,1.9352,1.9519,1.9683,1.9851,2.0018,2.0185,2.0352,2.052,2.0683,2.085,2.102,2.1186,2.1351,2.1522,2.1685,2.1852,2.2021,2.2186]","[1,1,1,1,1,1,1,1,1,1,1,1,1,1,1,1,1,1,1,1,1,1,1,1,1,1,1,1,1,1,1,1,1,1,1,1,1,1,1,1,1,1,1,1,1,1,1,1,1,1,1,1,1,1,1,1,1,1,1,1,1,1,1,1,1,1,1,1,1,1,1,1,1,1,1,1,2,2,2,2,2,2,2,2,2,2,2,2,2,2,2,2,2,2,2,2,2,2,2,2,2,2,2,2,2,2,2,2,2,2,2,2,2,2,2,2,2,2,2,2,2,2,2,2,2,2,2,2,2,2,2,2,2,2]",4,40.5211,4,9,0,9,0,1,236185,1,SV_6SxWlNLsoRj8nqK,304B,2022-07-29_10h08.48.954,implicit_time,2021.1.4,Linux x86_64,59.95563283
control,45,0,0,10,NA,0,NA,0,1,0.5,FALSE,practice,1,"[0.016667,0.014583,0.014583,0.014583,0.014583,0.014583,0.014583,0.014583,0.014583,0.014583,0.014583,0.014583,0.014583,0.014583,0.014583,0.014583,0.014583,0.014583,0.014583,0.014583,0.014583,0.014583,0.014583,0.014583,0.014583,0.014583,0.014583,0.016667,0.022917,0.027083,0.041667,0.060417,0.091667,0.1125,0.160417,0.1875,0.24375,0.310417,0.3875,0.425,0.495833,0.527083,0.577083,0.610417,0.6375,0.647917,0.666667,0.670833,0.675,0.672917,0.672917,0.672917,0.672917,0.675,0.679167,0.683333,0.6875,0.69375,0.7,0.702083,0.704167,0.704167,0.704167,0.704167,0.704167,0.702083,0.6875,0.660417,0.639583,0.583333,0.520833,0.489583,0.429167,0.372917,0.345833,0.29375,0.25,0.23125,0.202083,0.177083,0.164583,0.14375,0.129167,0.122917,0.116667,0.1125,0.110417,0.108333,0.104167,0.1,0.089583,0.077083,0.070833,0.058333,0.047917,0.045833,0.039583,0.0375,0.0375,0.035417,0.035417,0.035417,0.035417,0.0375,0.0375,0.0375,0.033333]","[-0.023556,-0.020444,-0.020444,-0.017333,-0.011111,-0.011111,-0.008,-0.008,-0.008,-0.004889,-0.004889,-0.004889,-0.004889,-0.004889,-0.004889,-0.004889,-0.004889,-0.004889,-0.004889,-0.004889,-0.004889,-0.004889,-0.004889,-0.004889,-0.004889,-0.001778,-0.001778,0.004444,0.016889,0.023111,0.048,0.085333,0.135111,0.166222,0.234667,0.272,0.349778,0.430667,0.508444,0.545778,0.614222,0.645333,0.701333,0.744889,0.776,0.788444,0.807111,0.813333,0.816444,0.819556,0.819556,0.819556,0.816444,0.816444,0.813333,0.810222,0.807111,0.804,0.800889,0.800889,0.797778,0.797778,0.797778,0.797778,0.797778,0.797778,0.791556,0.779111,0.769778,0.744889,0.704444,0.679556,0.617333,0.545778,0.511556,0.443111,0.377778,0.349778,0.3,0.259556,0.240889,0.212889,0.194222,0.188,0.175556,0.169333,0.166222,0.163111,0.156889,0.153778,0.141333,0.128889,0.119556,0.107111,0.091556,0.085333,0.066667,0.063556,0.060444,0.054222,0.051111,0.048,0.044889,0.038667,0.038667,0.029333,0.023111]","[0.0006,0.0168,0.0333,0.0496,0.0666,0.0828,0.0996,0.1165,0.133,0.1496,0.1665,0.1829,0.1995,0.2165,0.2327,0.2499,0.2662,0.2833,0.3,0.3181,0.3335,0.35,0.367,0.3833,0.3995,0.415,0.4333,0.4501,0.467,0.4836,0.5004,0.5169,0.5337,0.5502,0.5672,0.5834,0.6002,0.6171,0.6336,0.6503,0.6672,0.6837,0.7006,0.7174,0.7365,0.7506,0.7676,0.7838,0.8007,0.8174,0.8338,0.8505,0.8676,0.8839,0.9005,0.9175,0.9339,0.9506,0.9676,0.984,1.0007,1.0175,1.0339,1.0506,1.0676,1.0842,1.1008,1.1178,1.1342,1.1508,1.1677,1.1842,1.2009,1.2178,1.2343,1.2509,1.268,1.2843,1.3011,1.318,1.335,1.3515,1.3684,1.3846,1.4013,1.4181,1.4348,1.4513,1.4685,1.4848,1.5015,1.5184,1.5347,1.5513,1.5683,1.5847,1.6074,1.6186,1.6348,1.6516,1.6686,1.6848,1.7015,1.7185,1.7348,1.7515,1.7686]","[1,1,1,1,1,1,1,1,1,1,1,1,1,1,1,1,1,1,1,1,1,1,1,1,1,1,1,1,1,1,1,1,1,1,1,1,1,1,1,1,1,1,1,2,2,2,2,2,2,2,2,2,2,2,2,2,2,2,2,2,2,2,2,2,2,2,2,2,2,2,2,2,2,2,2,2,2,2,2,2,2,2,2,2,2,2,2,2,2,2,2,2,2,2,2,2,2,2,2,2,2,2,2,2,2,2,2]",5,42.8074,4,10,0,10,0,1,236185,1,SV_6SxWlNLsoRj8nqK,304B,2022-07-29_10h08.48.954,implicit_time,2021.1.4,Linux x86_64,59.95563283
control,52.5,0,0,10,NA,0,NA,0,0,0.5,FALSE,practice,0,"[0.008333,0.00625,0.00625,0.00625,0.004167,0.002083,0.002083,0.002083,0.002083,0.002083,0.002083,0,0,0,0,0,0,0,0,-0.002083,0,0.002083,0.014583,0.035417,0.047917,0.072917,0.108333,0.129167,0.177083,0.23125,0.258333,0.316667,0.372917,0.4,0.45625,0.516667,0.547917,0.608333,0.658333,0.670833,0.675,0.672917,0.672917,0.672917,0.66875,0.666667,0.65625,0.64375,0.635417,0.6125,0.58125,0.560417,0.5125,0.454167,0.422917,0.354167,0.279167,0.241667,0.16875,0.102083,0.070833,0.014583,-0.008333,-0.047917,-0.077083,-0.097917,-0.104167,-0.1125,-0.1125,-0.110417,-0.10625,-0.1,-0.097917,-0.089583,-0.085417,-0.08125,-0.077083,-0.070833,-0.06875,-0.060417,-0.05625,-0.05,-0.04375,-0.0375,-0.033333,-0.025,-0.022917,-0.01875,-0.014583,-0.010417,-0.010417,-0.008333,-0.008333,-0.008333,-0.010417,-0.010417,-0.010417,-0.010417]","[-0.017333,-0.014222,-0.011111,-0.011111,-0.008,-0.008,-0.008,-0.004889,-0.004889,-0.004889,-0.004889,-0.004889,-0.004889,-0.004889,-0.004889,-0.004889,-0.004889,-0.004889,-0.004889,-0.001778,0.004444,0.010667,0.032444,0.063556,0.082222,0.132,0.191111,0.225333,0.3,0.374667,0.412,0.486667,0.552,0.583111,0.642222,0.695111,0.723111,0.766667,0.804,0.813333,0.816444,0.816444,0.816444,0.816444,0.819556,0.819556,0.828889,0.835111,0.835111,0.828889,0.816444,0.807111,0.779111,0.741778,0.716889,0.664,0.601778,0.567556,0.496,0.424444,0.390222,0.324889,0.296889,0.244,0.203556,0.175556,0.163111,0.150667,0.147556,0.144444,0.141333,0.141333,0.144444,0.144444,0.144444,0.144444,0.144444,0.141333,0.141333,0.138222,0.138222,0.135111,0.135111,0.132,0.132,0.128889,0.128889,0.122667,0.116444,0.107111,0.104,0.091556,0.085333,0.072889,0.060444,0.051111,0.044889,0.035556]","[0.0006,0.0171,0.0332,0.0496,0.0664,0.0833,0.0996,0.1162,0.1332,0.1492,0.163,0.183,0.1998,0.2162,0.2332,0.2493,0.2637,0.2834,0.2998,0.3166,0.3336,0.35,0.3667,0.3836,0.4007,0.4173,0.4342,0.4506,0.4674,0.4844,0.5006,0.5174,0.5341,0.5507,0.5674,0.5845,0.6007,0.6176,0.6344,0.651,0.6676,0.6845,0.701,0.717,0.7341,0.7511,0.7679,0.7846,0.8023,0.8177,0.8347,0.8511,0.8677,0.8848,0.9011,0.9178,0.9348,0.9513,0.9679,0.9848,1.0014,1.0179,1.0343,1.0508,1.0675,1.0844,1.1008,1.1178,1.1347,1.151,1.1678,1.1847,1.2011,1.2175,1.2347,1.2519,1.2679,1.285,1.3012,1.3179,1.3348,1.3512,1.3679,1.3849,1.4012,1.4178,1.4348,1.4512,1.4679,1.4848,1.5011,1.518,1.5349,1.5513,1.5681,1.585,1.6015,1.618]","[1,1,1,1,1,1,1,1,1,1,1,1,1,1,1,1,1,1,1,1,1,1,1,1,1,1,1,1,1,1,1,1,1,1,1,1,1,2,2,2,2,2,2,2,2,2,2,2,2,2,2,2,2,2,2,2,2,2,2,2,2,2,2,2,2,2,2,2,2,2,2,2,2,2,2,2,2,2,2,2,2,2,2,2,2,2,2,2,2,2,2,2,2,2,2,2,2,2]",5,44.9429,4,11,0,11,0,1,236185,1,SV_6SxWlNLsoRj8nqK,304B,2022-07-29_10h08.48.954,implicit_time,2021.1.4,Linux x86_64,59.95563283
control,135,0,0,10,NA,0,NA,0,1,0.5,FALSE,practice,1,"[-0.002083,-0.002083,-0.002083,-0.002083,-0.002083,-0.002083,-0.002083,-0.002083,-0.002083,-0.002083,-0.002083,-0.002083,-0.002083,-0.002083,-0.002083,-0.002083,-0.002083,-0.002083,-0.002083,-0.002083,-0.002083,-0.004167,-0.00625,-0.010417,-0.016667,-0.020833,-0.035417,-0.04375,-0.066667,-0.09375,-0.129167,-0.152083,-0.202083,-0.23125,-0.29375,-0.354167,-0.40625,-0.43125,-0.479167,-0.502083,-0.541667,-0.575,-0.60625,-0.620833,-0.65,-0.6625,-0.68125,-0.697917,-0.7125,-0.727083,-0.735417,-0.741667,-0.754167,-0.766667,-0.779167,-0.7875,-0.8,-0.804167,-0.804167,-0.804167,-0.804167,-0.804167,-0.8,-0.795833,-0.777083,-0.752083,-0.725,-0.708333,-0.670833,-0.65,-0.604167,-0.554167,-0.529167,-0.483333,-0.429167,-0.4,-0.341667,-0.289583,-0.264583,-0.222917,-0.1875,-0.170833,-0.141667,-0.11875,-0.108333,-0.09375,-0.083333,-0.077083,-0.066667,-0.054167,-0.05,-0.04375,-0.0375,-0.035417,-0.029167,-0.01875,-0.0125,0,0.00625,0.010417,0.0125]","[-0.008,-0.008,-0.008,-0.008,-0.008,-0.008,-0.008,-0.008,-0.008,-0.008,-0.008,-0.008,-0.008,-0.008,-0.008,-0.008,-0.008,-0.008,-0.008,-0.008,-0.008,-0.008,-0.004889,0.001333,0.010667,0.016889,0.035556,0.048,0.079111,0.116444,0.156889,0.178667,0.225333,0.247111,0.287556,0.334222,0.384,0.405778,0.455556,0.477333,0.517778,0.552,0.58,0.589333,0.608,0.617333,0.632889,0.645333,0.654667,0.664,0.670222,0.673333,0.685778,0.695111,0.704444,0.707556,0.716889,0.72,0.72,0.72,0.72,0.72,0.716889,0.713778,0.704444,0.685778,0.660889,0.648444,0.617333,0.601778,0.564444,0.520889,0.499111,0.455556,0.412,0.393333,0.356,0.321778,0.303111,0.268889,0.237778,0.222222,0.194222,0.172444,0.16,0.144444,0.128889,0.122667,0.113333,0.104,0.100889,0.094667,0.091556,0.088444,0.082222,0.076,0.072889,0.063556,0.054222,0.041778,0.038667]","[0.0006,0.0167,0.0329,0.0491,0.0662,0.0824,0.0995,0.1165,0.1329,0.1495,0.1666,0.1829,0.1998,0.2164,0.2329,0.2498,0.2665,0.2826,0.2954,0.3166,0.333,0.3499,0.3668,0.3832,0.4001,0.4168,0.4334,0.45,0.4672,0.4834,0.5001,0.5169,0.5337,0.55,0.567,0.5835,0.6001,0.6172,0.6338,0.6504,0.6671,0.6837,0.7003,0.7171,0.7338,0.7508,0.7673,0.7836,0.8004,0.8203,0.8342,0.8505,0.8674,0.8839,0.9005,0.9174,0.934,0.9507,0.9674,0.984,1.0007,1.0175,1.0339,1.0509,1.0677,1.0841,1.1008,1.1179,1.1342,1.1508,1.1678,1.1842,1.2009,1.2181,1.2346,1.251,1.2677,1.2843,1.301,1.3179,1.3346,1.3512,1.3679,1.3844,1.4011,1.4183,1.4347,1.4515,1.4684,1.4846,1.5015,1.5182,1.5349,1.5514,1.5682,1.5847,1.6015,1.6185,1.6364,1.652,1.6684]","[1,1,1,1,1,1,1,1,1,1,1,1,1,1,1,1,1,1,1,1,1,1,1,1,1,1,1,1,1,1,1,1,1,1,1,1,1,1,1,1,1,1,1,1,1,1,1,1,2,2,2,2,2,2,2,2,2,2,2,2,2,2,2,2,2,2,2,2,2,2,2,2,2,2,2,2,2,2,2,2,2,2,2,2,2,2,2,2,2,2,2,2,2,2,2,2,2,2,2,2,2]",6,47.1292,4,12,0,12,0,1,236185,1,SV_6SxWlNLsoRj8nqK,304B,2022-07-29_10h08.48.954,implicit_time,2021.1.4,Linux x86_64,59.95563283
control,127.5,0,0,10,NA,0,NA,0,0,0.5,FALSE,practice,0,"[0.014583,0.014583,0.014583,0.014583,0.014583,0.014583,0.014583,0.014583,0.014583,0.014583,0.014583,0.014583,0.0125,0.0125,0.0125,0.0125,0.0125,0.0125,0.0125,0.0125,0.0125,0.0125,0.010417,0.00625,0.002083,-0.008333,-0.014583,-0.029167,-0.052083,-0.083333,-0.1,-0.139583,-0.160417,-0.204167,-0.247917,-0.289583,-0.308333,-0.34375,-0.358333,-0.3875,-0.414583,-0.441667,-0.45625,-0.475,-0.483333,-0.497917,-0.514583,-0.529167,-0.5375,-0.55,-0.55625,-0.566667,-0.575,-0.579167,-0.583333,-0.5875,-0.589583,-0.59375,-0.595833,-0.597917,-0.597917,-0.602083,-0.604167,-0.6125,-0.61875,-0.625,-0.627083,-0.63125,-0.633333,-0.633333,-0.633333,-0.622917,-0.6125,-0.577083,-0.55625,-0.516667,-0.477083,-0.458333,-0.416667,-0.375,-0.35625,-0.316667,-0.283333,-0.25,-0.216667,-0.197917,-0.16875,-0.141667,-0.13125,-0.1125,-0.102083,-0.0875,-0.075,-0.066667,-0.0625,-0.05625,-0.054167,-0.047917,-0.04375,-0.039583,-0.035417,-0.03125,-0.029167,-0.022917,-0.016667,-0.010417,-0.00625,0,0.00625]","[-0.001778,-0.001778,-0.001778,-0.001778,-0.001778,-0.001778,-0.001778,-0.001778,-0.001778,-0.001778,-0.001778,-0.001778,-0.001778,-0.001778,-0.001778,-0.001778,-0.001778,-0.001778,-0.001778,-0.001778,-0.001778,-0.001778,0.001333,0.007556,0.013778,0.029333,0.038667,0.060444,0.091556,0.125778,0.144444,0.188,0.209778,0.253333,0.296889,0.340444,0.362222,0.405778,0.430667,0.477333,0.520889,0.561333,0.58,0.614222,0.629778,0.654667,0.679556,0.701333,0.707556,0.726222,0.732444,0.744889,0.754222,0.760444,0.760444,0.763556,0.766667,0.766667,0.769778,0.772889,0.772889,0.779111,0.782222,0.794667,0.810222,0.825778,0.835111,0.850667,0.856889,0.86,0.86,0.86,0.856889,0.841333,0.832,0.797778,0.754222,0.729333,0.673333,0.614222,0.586222,0.524,0.464889,0.402667,0.346667,0.321778,0.275111,0.231556,0.212889,0.178667,0.166222,0.144444,0.128889,0.119556,0.113333,0.107111,0.104,0.097778,0.091556,0.085333,0.082222,0.076,0.072889,0.066667,0.060444,0.054222,0.048,0.041778,0.032444]","[0.0003,0.0223,0.0382,0.0547,0.0714,0.0883,0.1047,0.1215,0.1383,0.1547,0.1713,0.1884,0.2049,0.222,0.2384,0.2549,0.2718,0.2884,0.3052,0.3214,0.3325,0.3492,0.366,0.3829,0.3995,0.416,0.4328,0.4495,0.4661,0.4829,0.4994,0.5161,0.5329,0.5496,0.5663,0.583,0.5995,0.6163,0.6331,0.6497,0.6665,0.6832,0.7,0.7165,0.7331,0.7499,0.7667,0.7833,0.8001,0.8166,0.8332,0.85,0.8667,0.8833,0.9,0.9168,0.9335,0.9501,0.9668,0.9833,1.0001,1.0168,1.0335,1.0502,1.0667,1.0835,1.1002,1.1168,1.1335,1.1504,1.167,1.1837,1.2003,1.2169,1.2336,1.2505,1.2672,1.2837,1.3004,1.3173,1.334,1.3507,1.3686,1.3918,1.4075,1.4237,1.4416,1.457,1.4734,1.4902,1.5068,1.5233,1.54,1.5567,1.5733,1.5904,1.6071,1.6235,1.6401,1.6567,1.6734,1.6903,1.7068,1.7234,1.7403,1.7569,1.7734,1.7902,1.8069]","[1,1,1,1,1,1,1,1,1,1,1,1,1,1,1,1,1,1,1,1,1,1,1,1,1,1,1,1,1,1,1,1,1,1,1,1,1,1,1,1,1,1,1,1,1,1,1,1,1,1,1,1,1,1,2,2,2,2,2,2,2,2,2,2,2,2,2,2,2,2,2,2,2,2,2,2,2,2,2,2,2,2,2,2,2,2,2,2,2,2,2,2,2,2,2,2,2,2,2,2,2,2,2,2,2,2,2,2,2]",6,49.4484,4,13,0,13,0,1,236185,1,SV_6SxWlNLsoRj8nqK,304B,2022-07-29_10h08.48.954,implicit_time,2021.1.4,Linux x86_64,59.95563283
control,75,0,0,10,NA,0,NA,0,1,0.5,FALSE,practice,1,"[-0.008333,-0.010417,-0.010417,-0.0125,-0.0125,-0.014583,-0.014583,-0.016667,-0.016667,-0.016667,-0.016667,-0.016667,-0.016667,-0.016667,-0.016667,-0.016667,-0.016667,-0.016667,-0.016667,-0.016667,-0.016667,-0.014583,-0.014583,-0.0125,-0.010417,-0.004167,0.002083,0.008333,0.010417,0.01875,0.022917,0.0375,0.054167,0.06875,0.075,0.091667,0.104167,0.133333,0.160417,0.18125,0.189583,0.2,0.204167,0.208333,0.208333,0.20625,0.20625,0.208333,0.208333,0.210417,0.2125,0.216667,0.21875,0.220833,0.220833,0.21875,0.21875,0.214583,0.214583,0.210417,0.20625,0.20625,0.202083,0.19375,0.189583,0.175,0.158333,0.145833,0.11875,0.0875,0.070833,0.04375,0.020833,0.010417,-0.00625,-0.01875,-0.022917,-0.025,-0.027083,-0.029167,-0.03125,-0.03125,-0.03125,-0.027083,-0.020833,-0.016667,-0.010417,-0.008333,0,0.00625,0.010417,0.0125]","[-0.017333,-0.014222,-0.014222,-0.011111,-0.011111,-0.011111,-0.008,-0.008,-0.008,-0.004889,-0.004889,-0.001778,-0.001778,0.001333,0.004444,0.007556,0.007556,0.007556,0.007556,0.007556,0.010667,0.010667,0.013778,0.016889,0.023111,0.035556,0.057333,0.082222,0.097778,0.132,0.153778,0.200444,0.256444,0.318667,0.352889,0.427556,0.464889,0.539556,0.611111,0.676444,0.707556,0.763556,0.788444,0.828889,0.866222,0.894222,0.906667,0.928444,0.937778,0.956444,0.975111,0.993778,1.003111,1.009333,1.009333,1.009333,1.009333,1.009333,1.009333,1.009333,1.009333,1.009333,1.003111,0.984444,0.968889,0.931556,0.878667,0.850667,0.785333,0.713778,0.676444,0.601778,0.530222,0.496,0.433778,0.377778,0.349778,0.303111,0.262667,0.240889,0.206667,0.191111,0.166222,0.141333,0.122667,0.110222,0.091556,0.082222,0.066667,0.054222,0.041778,0.035556]","[0.0001,0.0165,0.034,0.0507,0.0664,0.0842,0.0999,0.1166,0.1333,0.1499,0.1667,0.1834,0.2,0.2167,0.2332,0.2498,0.2667,0.2835,0.3001,0.3167,0.3333,0.3501,0.367,0.3835,0.4003,0.4169,0.4336,0.4503,0.467,0.4837,0.5004,0.5171,0.5336,0.5504,0.5672,0.584,0.6006,0.6172,0.6339,0.6504,0.6672,0.6841,0.7006,0.7172,0.734,0.7505,0.7672,0.784,0.8005,0.8172,0.8341,0.8509,0.8676,0.8843,0.9008,0.9174,0.9343,0.9508,0.9674,0.9843,1.0009,1.0176,1.0341,1.051,1.0677,1.0842,1.1009,1.1176,1.1344,1.151,1.168,1.1844,1.2011,1.2179,1.2346,1.2512,1.268,1.2846,1.3011,1.3179,1.3345,1.3512,1.3679,1.3846,1.4014,1.4179,1.4347,1.4516,1.4683,1.4849,1.5014,1.5181]","[1,1,1,1,1,1,1,1,1,1,1,1,1,1,1,1,1,1,1,1,1,1,1,1,1,1,1,1,1,1,1,1,1,1,1,1,1,1,1,1,1,1,1,1,1,1,1,1,2,2,2,2,2,2,2,2,2,2,2,2,2,2,2,2,2,2,2,2,2,2,2,2,2,2,2,2,2,2,2,2,2,2,2,2,2,2,2,2,2,2,2,2]",7,51.4768,4,14,0,14,0,1,236185,1,SV_6SxWlNLsoRj8nqK,304B,2022-07-29_10h08.48.954,implicit_time,2021.1.4,Linux x86_64,59.95563283
control,82.5,0,0,10,NA,0,NA,0,0,0.5,FALSE,practice,0,"[0,0,0,0,0,0,0,0,0,0,0,0,0,0,0,0,0,0,0,0,0,0,0,0,0.004167,0.00625,0.01875,0.03125,0.0375,0.052083,0.075,0.110417,0.13125,0.1625,0.177083,0.204167,0.235417,0.264583,0.275,0.279167,0.272917,0.254167,0.235417,0.220833,0.21875,0.216667,0.21875,0.21875,0.220833,0.222917,0.220833,0.214583,0.210417,0.197917,0.185417,0.16875,0.160417,0.141667,0.13125,0.110417,0.089583,0.06875,0.058333,0.041667,0.0375,0.029167,0.022917,0.01875]","[0.010667,0.010667,0.010667,0.010667,0.010667,0.010667,0.010667,0.010667,0.010667,0.010667,0.010667,0.010667,0.010667,0.007556,0.004444,0.004444,0.004444,0.004444,0.004444,0.004444,0.004444,0.004444,0.007556,0.016889,0.032444,0.044889,0.079111,0.128889,0.16,0.237778,0.328,0.430667,0.480444,0.589333,0.642222,0.748,0.847556,0.931556,0.962667,0.996889,1,1.003111,1.006222,1.009333,1.009333,1.009333,1.009333,1.003111,0.990667,0.965778,0.947111,0.903556,0.878667,0.819556,0.754222,0.682667,0.645333,0.564444,0.524,0.44,0.359111,0.284444,0.247111,0.175556,0.144444,0.088444,0.044889,0.007556]","[0.0006,0.0169,0.033,0.0495,0.0659,0.0828,0.0997,0.1156,0.1329,0.1498,0.1693,0.1851,0.201,0.2264,0.2401,0.2504,0.2664,0.2832,0.3002,0.3166,0.3333,0.3505,0.3664,0.3832,0.4,0.4165,0.4339,0.4505,0.467,0.4836,0.5008,0.5171,0.534,0.5506,0.567,0.5838,0.6007,0.6177,0.6341,0.6509,0.6676,0.684,0.7009,0.7174,0.7347,0.7513,0.7676,0.7845,0.8011,0.8177,0.8343,0.8526,0.868,0.8843,0.9014,0.9178,0.9346,0.9512,0.968,0.9844,1.0011,1.0179,1.0339,1.0508,1.0673,1.0838,1.1009,1.1174]","[1,1,1,1,1,1,1,1,1,1,1,1,1,1,1,1,1,1,1,1,1,1,1,1,1,1,1,1,1,1,1,1,1,1,1,1,1,2,2,2,2,2,2,2,2,2,2,2,2,2,2,2,2,2,2,2,2,2,2,2,2,2,2,2,2,2,2,2]",7,53.453,4,15,0,15,0,1,236185,1,SV_6SxWlNLsoRj8nqK,304B,2022-07-29_10h08.48.954,implicit_time,2021.1.4,Linux x86_64,59.95563283
control,105,0,0,10,NA,0,NA,0,1,0.5,FALSE,practice,1,"[-0.002083,-0.002083,0,0,0,0,0,0,0,0,0,0,0,0,0,0,0,0,0,0,0,0,0.002083,0.002083,0,-0.002083,-0.010417,-0.014583,-0.029167,-0.04375,-0.0625,-0.072917,-0.09375,-0.102083,-0.120833,-0.1375,-0.154167,-0.1625,-0.179167,-0.1875,-0.2,-0.214583,-0.229167,-0.235417,-0.24375,-0.245833,-0.241667,-0.235417,-0.233333,-0.233333,-0.235417,-0.235417,-0.233333,-0.233333,-0.233333,-0.233333,-0.233333,-0.235417,-0.233333,-0.227083,-0.216667,-0.210417,-0.2,-0.195833,-0.183333,-0.166667,-0.15,-0.141667,-0.120833,-0.110417,-0.089583,-0.070833,-0.052083,-0.041667,-0.025,-0.01875,-0.00625,0.004167,0.0125,0.016667,0.022917,0.027083,0.033333,0.0375,0.039583,0.041667,0.041667,0.041667,0.0375,0.033333]","[-0.004889,-0.004889,-0.004889,-0.001778,-0.001778,-0.001778,-0.001778,-0.001778,-0.001778,-0.001778,-0.001778,-0.001778,-0.001778,-0.001778,-0.001778,-0.001778,-0.001778,-0.001778,-0.001778,-0.001778,-0.001778,-0.001778,0.001333,0.010667,0.02,0.029333,0.048,0.063556,0.094667,0.135111,0.178667,0.203556,0.256444,0.284444,0.343556,0.405778,0.471111,0.505333,0.573778,0.604889,0.670222,0.729333,0.782222,0.807111,0.853778,0.875556,0.922222,0.962667,0.996889,1.003111,1.006222,1.006222,1.006222,1.006222,1.006222,1.006222,1.006222,1.006222,1,0.978222,0.940889,0.916,0.86,0.825778,0.760444,0.685778,0.614222,0.576889,0.508444,0.474222,0.412,0.352889,0.3,0.275111,0.231556,0.212889,0.175556,0.150667,0.128889,0.119556,0.104,0.097778,0.088444,0.076,0.069778,0.060444,0.048,0.041778,0.032444,0.023111]","[0.0003,0.0156,0.0323,0.0489,0.0656,0.0831,0.099,0.1155,0.1323,0.1491,0.1655,0.1821,0.1991,0.2156,0.2324,0.2491,0.2658,0.2823,0.299,0.3158,0.3324,0.3492,0.3658,0.3826,0.3992,0.4158,0.4327,0.4492,0.4659,0.4827,0.4994,0.5161,0.5328,0.5493,0.566,0.5829,0.5994,0.6162,0.633,0.6496,0.6661,0.6828,0.6996,0.7162,0.733,0.7497,0.7664,0.7831,0.7997,0.8165,0.8331,0.8496,0.8665,0.8832,0.8999,0.9165,0.9332,0.95,0.9666,0.9833,0.9998,1.0164,1.0332,1.0499,1.0665,1.0835,1.1001,1.1168,1.1335,1.15,1.1667,1.1836,1.2003,1.2168,1.2336,1.2501,1.2667,1.2837,1.3004,1.317,1.3337,1.3503,1.3669,1.3839,1.4005,1.4171,1.4339,1.4504,1.467,1.4837]","[1,1,1,1,1,1,1,1,1,1,1,1,1,1,1,1,1,1,1,1,1,1,1,1,1,1,1,1,1,1,1,1,1,1,1,1,1,1,1,1,1,1,1,1,1,1,1,2,2,2,2,2,2,2,2,2,2,2,2,2,2,2,2,2,2,2,2,2,2,2,2,2,2,2,2,2,2,2,2,2,2,2,2,2,2,2,2,2,2,2]",8,55.9801,4,16,0,16,0,1,236185,1,SV_6SxWlNLsoRj8nqK,304B,2022-07-29_10h08.48.954,implicit_time,2021.1.4,Linux x86_64,59.95563283
control,97.5,0,0,10,NA,0,NA,0,0,0.5,FALSE,practice,0,"[0.010417,0.008333,0.008333,0.008333,0.00625,0.00625,0.004167,0.004167,0.002083,0.002083,0,0,0,-0.002083,-0.002083,-0.002083,-0.002083,-0.00625,-0.00625,-0.010417,-0.014583,-0.020833,-0.025,-0.033333,-0.035417,-0.041667,-0.047917,-0.054167,-0.058333,-0.064583,-0.066667,-0.066667,-0.06875,-0.075,-0.085417,-0.091667,-0.091667,-0.09375,-0.095833,-0.108333,-0.120833,-0.125,-0.122917,-0.11875,-0.11875,-0.11875,-0.11875,-0.114583,-0.110417,-0.095833,-0.085417,-0.066667,-0.052083,-0.041667,-0.039583,-0.03125,-0.029167,-0.022917,-0.016667,-0.010417,-0.00625,0.002083,0.00625,0.014583,0.020833,0.027083,0.03125,0.0375,0.041667,0.05,0.060417,0.06875,0.072917,0.079167,0.083333,0.085417,0.0875,0.089583,0.089583,0.089583,0.0875,0.085417,0.083333,0.077083,0.075,0.070833,0.06875,0.064583,0.060417,0.05625,0.054167,0.052083,0.05,0.047917,0.045833,0.04375,0.041667,0.039583]","[0.004444,0.004444,0.004444,0.004444,0.001333,0.001333,0.001333,0.001333,0.001333,0.001333,0.001333,-0.001778,-0.001778,0.001333,0.001333,-0.001778,0.001333,0.001333,0.001333,0.007556,0.013778,0.029333,0.038667,0.063556,0.079111,0.119556,0.169333,0.228444,0.262667,0.337333,0.377778,0.461778,0.505333,0.592444,0.673333,0.748,0.785333,0.847556,0.875556,0.925333,0.965778,0.996889,1.009333,1.021778,1.021778,1.021778,1.021778,1.021778,1.021778,1.018667,1.012444,0.996889,0.972,0.934667,0.912889,0.86,0.828889,0.763556,0.688889,0.608,0.567556,0.483556,0.44,0.356,0.272,0.197333,0.163111,0.097778,0.069778,0.02,-0.017333,-0.045333,-0.054667,-0.067111,-0.073333,-0.076444,-0.076444,-0.076444,-0.076444,-0.076444,-0.076444,-0.073333,-0.067111,-0.060889,-0.060889,-0.054667,-0.051556,-0.042222,-0.036,-0.032889,-0.029778,-0.026667,-0.023556,-0.020444,-0.017333,-0.014222,-0.014222,-0.011111]","[0.0003,0.0165,0.0333,0.05,0.0667,0.0839,0.0999,0.1168,0.1327,0.1499,0.1663,0.1829,0.2,0.2169,0.2329,0.2503,0.2662,0.2828,0.2996,0.3163,0.3329,0.3503,0.3664,0.383,0.3997,0.4163,0.4331,0.4504,0.4665,0.4835,0.4998,0.5167,0.5332,0.5499,0.5667,0.5834,0.6002,0.6168,0.6333,0.6502,0.6669,0.6836,0.7003,0.7169,0.7335,0.7501,0.7668,0.7837,0.8003,0.817,0.8339,0.8505,0.8671,0.8838,0.9005,0.917,0.9337,0.9505,0.9673,0.9838,1.0006,1.0171,1.0338,1.0505,1.0672,1.084,1.1007,1.1173,1.1338,1.1504,1.1672,1.184,1.2006,1.2173,1.2341,1.2506,1.2673,1.2842,1.3008,1.3174,1.334,1.3506,1.3672,1.3839,1.4008,1.4173,1.434,1.4508,1.4673,1.484,1.5009,1.5175,1.5341,1.5509,1.5675,1.5842,1.601,1.6176]","[1,1,1,1,1,1,1,1,1,1,1,1,1,1,1,1,1,1,1,1,1,1,1,1,1,1,1,1,1,1,1,1,1,1,1,1,1,1,1,1,2,2,2,2,2,2,2,2,2,2,2,2,2,2,2,2,2,2,2,2,2,2,2,2,2,2,2,2,2,2,2,2,2,2,2,2,2,2,2,2,2,2,2,2,2,2,2,2,2,2,2,2,2,2,2,2,2,2]",8,58.1151,4,17,0,17,0,1,236185,1,SV_6SxWlNLsoRj8nqK,304B,2022-07-29_10h08.48.954,implicit_time,2021.1.4,Linux x86_64,59.95563283
control,135,0,0,10,NA,0,NA,0,1,0.5,FALSE,practice,1,"[-0.010417,-0.010417,-0.010417,-0.010417,-0.008333,-0.008333,-0.008333,-0.00625,-0.00625,-0.004167,-0.002083,0,0.004167,0.00625,0.010417,0.010417,0.0125,0.0125,0.0125,0.0125,0.0125,0.0125,0.0125,0.010417,0.00625,0.002083,-0.0125,-0.020833,-0.045833,-0.079167,-0.120833,-0.14375,-0.197917,-0.229167,-0.29375,-0.360417,-0.427083,-0.4625,-0.529167,-0.560417,-0.61875,-0.670833,-0.697917,-0.745833,-0.791667,-0.810417,-0.83125,-0.83125,-0.83125,-0.829167,-0.829167,-0.829167,-0.829167,-0.829167,-0.829167,-0.822917,-0.802083,-0.785417,-0.75,-0.710417,-0.689583,-0.645833,-0.595833,-0.56875,-0.5125,-0.454167,-0.427083,-0.372917,-0.320833,-0.295833,-0.245833,-0.2,-0.177083,-0.139583,-0.110417,-0.095833,-0.072917,-0.054167,-0.047917,-0.0375,-0.029167,-0.027083,-0.025,-0.020833,-0.020833,-0.01875,-0.020833,-0.020833,-0.020833]","[-0.020444,-0.020444,-0.020444,-0.020444,-0.017333,-0.014222,-0.011111,-0.011111,-0.008,-0.008,-0.004889,-0.001778,0.001333,0.001333,0.007556,0.007556,0.007556,0.010667,0.010667,0.010667,0.010667,0.010667,0.007556,0.010667,0.013778,0.02,0.032444,0.041778,0.063556,0.097778,0.141333,0.166222,0.216,0.244,0.3,0.359111,0.418222,0.446222,0.499111,0.524,0.570667,0.611111,0.629778,0.657778,0.682667,0.688889,0.698222,0.698222,0.698222,0.698222,0.695111,0.695111,0.695111,0.698222,0.698222,0.698222,0.692,0.688889,0.673333,0.648444,0.632889,0.601778,0.564444,0.545778,0.502222,0.458667,0.433778,0.387111,0.340444,0.318667,0.275111,0.237778,0.219111,0.184889,0.153778,0.141333,0.116444,0.097778,0.088444,0.076,0.066667,0.063556,0.057333,0.051111,0.051111,0.044889,0.041778,0.038667,0.032444]","[0.0001,0.0168,0.0333,0.0498,0.0667,0.0833,0.1001,0.1167,0.1333,0.1499,0.1668,0.1834,0.2,0.2166,0.2333,0.25,0.2666,0.2834,0.3002,0.3168,0.3329,0.3502,0.3664,0.383,0.3997,0.4164,0.4331,0.4497,0.4669,0.4831,0.4999,0.5166,0.5338,0.5504,0.567,0.5839,0.6006,0.6171,0.6338,0.6499,0.6668,0.6833,0.7,0.7166,0.7343,0.7503,0.7668,0.7836,0.8002,0.8169,0.8337,0.8503,0.8669,0.8836,0.9004,0.9171,0.9337,0.9504,0.9671,0.9838,1.0004,1.0169,1.0338,1.0506,1.0672,1.0837,1.1004,1.1172,1.134,1.1507,1.1674,1.1841,1.2006,1.2174,1.2341,1.2508,1.2675,1.2841,1.3008,1.3175,1.3344,1.351,1.3676,1.3842,1.4009,1.4176,1.4344,1.4511,1.4678]","[1,1,1,1,1,1,1,1,1,1,1,1,1,1,1,1,1,1,1,1,1,1,1,1,1,1,1,1,1,1,1,1,1,1,1,1,1,1,1,1,1,1,1,2,2,2,2,2,2,2,2,2,2,2,2,2,2,2,2,2,2,2,2,2,2,2,2,2,2,2,2,2,2,2,2,2,2,2,2,2,2,2,2,2,2,2,2,2,2]",9,60.1005,4,18,0,18,0,1,236185,1,SV_6SxWlNLsoRj8nqK,304B,2022-07-29_10h08.48.954,implicit_time,2021.1.4,Linux x86_64,59.95563283
control,142.5,0,0,10,NA,0,NA,0,0,0.5,FALSE,practice,0,"[0.008333,0.008333,0.008333,0.008333,0.008333,0.008333,0.008333,0.008333,0.008333,0.008333,0.008333,0.008333,0.008333,0.008333,0.008333,0.008333,0.008333,0.008333,0.008333,0.008333,0.004167,0.002083,-0.008333,-0.01875,-0.033333,-0.041667,-0.060417,-0.070833,-0.095833,-0.127083,-0.160417,-0.179167,-0.216667,-0.235417,-0.277083,-0.320833,-0.364583,-0.385417,-0.429167,-0.452083,-0.504167,-0.560417,-0.6125,-0.633333,-0.6625,-0.675,-0.702083,-0.725,-0.74375,-0.752083,-0.758333,-0.760417,-0.7625,-0.760417,-0.75625,-0.75,-0.733333,-0.722917,-0.697917,-0.66875,-0.635417,-0.616667,-0.575,-0.552083,-0.5,-0.445833,-0.416667,-0.354167,-0.289583,-0.25625,-0.19375,-0.141667,-0.11875,-0.079167,-0.052083,-0.04375,-0.0375,-0.041667,-0.05,-0.072917,-0.114583,-0.14375,-0.214583,-0.297917,-0.34375,-0.435417,-0.522917,-0.564583,-0.64375,-0.716667,-0.75,-0.8125,-0.872917,-0.929167,-0.95,-0.972917,-0.972917,-0.970833,-0.970833,-0.970833,-0.970833,-0.970833,-0.970833,-0.972917,-0.972917,-0.972917,-0.972917,-0.966667,-0.960417,-0.94375,-0.925,-0.902083,-0.8875,-0.85625,-0.835417,-0.7875,-0.735417,-0.6875,-0.6625,-0.6125,-0.585417,-0.533333,-0.48125,-0.4375,-0.420833,-0.391667,-0.379167,-0.360417,-0.345833,-0.3375,-0.333333,-0.329167,-0.329167,-0.327083,-0.327083,-0.327083,-0.327083,-0.325,-0.322917,-0.320833,-0.320833,-0.31875,-0.31875,-0.316667,-0.314583,-0.308333,-0.295833,-0.2875,-0.26875,-0.252083,-0.241667,-0.227083,-0.216667,-0.2125,-0.20625,-0.2,-0.197917,-0.189583,-0.185417,-0.183333,-0.179167,-0.170833,-0.164583,-0.15,-0.1375,-0.13125,-0.11875,-0.108333,-0.10625,-0.102083,-0.1,-0.1,-0.1,-0.1,-0.097917,-0.091667,-0.085417,-0.08125,-0.072917,-0.06875,-0.066667,-0.064583,-0.060417,-0.058333,-0.05,-0.045833,-0.04375,-0.041667,-0.039583,-0.0375]","[0.001333,0.001333,0.001333,0.001333,0.001333,0.001333,0.001333,0.001333,0.001333,0.001333,0.001333,0.001333,0.001333,0.001333,0.001333,0.001333,0.001333,0.001333,0.001333,0.001333,0.001333,0.004444,0.010667,0.02,0.032444,0.038667,0.054222,0.063556,0.079111,0.097778,0.116444,0.128889,0.150667,0.163111,0.188,0.216,0.244,0.259556,0.290667,0.306222,0.337333,0.362222,0.393333,0.408889,0.443111,0.458667,0.483556,0.502222,0.517778,0.524,0.533333,0.536444,0.539556,0.536444,0.533333,0.530222,0.524,0.517778,0.505333,0.489778,0.468,0.452444,0.421333,0.405778,0.368444,0.334222,0.315556,0.278222,0.244,0.228444,0.191111,0.16,0.144444,0.116444,0.094667,0.088444,0.082222,0.085333,0.091556,0.110222,0.132,0.144444,0.169333,0.194222,0.209778,0.237778,0.268889,0.290667,0.334222,0.384,0.408889,0.455556,0.492889,0.517778,0.524,0.530222,0.530222,0.530222,0.530222,0.530222,0.530222,0.533333,0.533333,0.533333,0.536444,0.536444,0.536444,0.533333,0.533333,0.530222,0.527111,0.517778,0.511556,0.496,0.486667,0.461778,0.430667,0.396444,0.377778,0.337333,0.318667,0.284444,0.250222,0.219111,0.203556,0.178667,0.166222,0.147556,0.135111,0.128889,0.125778,0.122667,0.122667,0.122667,0.122667,0.122667,0.122667,0.119556,0.116444,0.110222,0.104,0.100889,0.097778,0.094667,0.091556,0.088444,0.085333,0.082222,0.079111,0.076,0.076,0.076,0.079111,0.079111,0.082222,0.088444,0.091556,0.097778,0.100889,0.100889,0.104,0.100889,0.100889,0.094667,0.085333,0.082222,0.072889,0.066667,0.063556,0.060444,0.060444,0.060444,0.060444,0.060444,0.057333,0.054222,0.051111,0.051111,0.048,0.041778,0.041778,0.038667,0.035556,0.032444,0.029333,0.023111,0.023111,0.02,0.02,0.016889]","[0.0004,0.0162,0.0332,0.0498,0.0665,0.0831,0.0997,0.1165,0.1333,0.15,0.1667,0.1831,0.1999,0.2166,0.2333,0.2497,0.2666,0.2832,0.3,0.3167,0.3336,0.3503,0.3667,0.3834,0.4002,0.4169,0.4337,0.4504,0.4671,0.4837,0.5003,0.5161,0.5338,0.5505,0.5661,0.5829,0.5996,0.6163,0.6329,0.6505,0.6671,0.6839,0.6997,0.7172,0.733,0.7496,0.7674,0.783,0.7997,0.8164,0.8331,0.8507,0.8666,0.8833,0.9,0.9166,0.9333,0.9501,0.9665,0.9831,1.0001,1.0166,1.0332,1.05,1.0666,1.0833,1.0998,1.1165,1.1333,1.1502,1.1667,1.1835,1.2002,1.2169,1.2335,1.2504,1.267,1.2837,1.3002,1.3169,1.3336,1.3503,1.367,1.3839,1.4005,1.4171,1.4337,1.4504,1.4673,1.4838,1.5005,1.5173,1.534,1.5506,1.5673,1.5841,1.6007,1.6173,1.6339,1.6507,1.6673,1.684,1.7007,1.7175,1.7341,1.7508,1.7674,1.7844,1.8009,1.818,1.8344,1.851,1.8679,1.8844,1.9011,1.9177,1.9345,1.9512,1.9679,1.9846,2.0013,2.0177,2.0344,2.0514,2.0679,2.0848,2.1013,2.1179,2.1347,2.1512,2.1679,2.1847,2.2014,2.218,2.2346,2.2513,2.2681,2.2848,2.3015,2.318,2.3348,2.3514,2.3682,2.385,2.4015,2.4181,2.4348,2.4515,2.4684,2.4851,2.5015,2.5182,2.5351,2.5519,2.5685,2.5852,2.6018,2.6184,2.6351,2.6518,2.6686,2.6853,2.7017,2.7187,2.7353,2.751,2.7687,2.7853,2.8021,2.8188,2.8354,2.8515,2.8687,2.8852,2.9021,2.9187,2.9346,2.952,2.9679,2.9855,3.0021,3.018,3.0347,3.0514,3.0681,3.0848,3.1014,3.1191,3.1373,3.1518]","[1,1,1,1,1,1,1,1,1,1,1,1,1,1,1,1,1,1,1,1,1,1,1,1,1,1,1,1,1,1,1,1,1,1,1,1,1,1,1,1,1,1,1,1,1,1,1,1,1,1,1,1,1,1,1,1,1,1,1,1,1,1,1,1,1,1,1,1,1,1,1,1,1,1,1,1,1,1,1,1,1,1,1,1,1,1,1,1,1,1,1,1,2,2,2,2,2,2,2,2,2,2,2,2,2,2,2,2,2,2,2,2,2,2,2,2,2,2,2,2,2,2,2,2,2,2,2,2,2,2,2,2,2,2,2,2,2,2,2,2,2,2,2,2,2,2,2,2,2,2,2,2,2,2,2,2,2,2,2,2,2,2,2,2,2,2,2,2,2,2,2,2,2,2,2,2,2,2,2,2,2,2,2,2,2,2,2,2,2,2]",9,63.77,4,19,0,19,0,1,236185,1,SV_6SxWlNLsoRj8nqK,304B,2022-07-29_10h08.48.954,implicit_time,2021.1.4,Linux x86_64,59.95563283
control,75,0,0,10,NA,0,NA,0,1,0.5,FALSE,practice,1,"[-0.002083,-0.002083,-0.002083,-0.002083,-0.002083,-0.002083,-0.002083,-0.002083,-0.002083,-0.002083,-0.002083,-0.002083,-0.002083,-0.002083,-0.002083,-0.004167,-0.004167,-0.00625,-0.008333,-0.010417,-0.0125,-0.0125,-0.014583,-0.014583,-0.016667,-0.016667,-0.01875,-0.01875,-0.00625,0.004167,0.035417,0.052083,0.075,0.083333,0.085417,0.085417,0.095833,0.10625,0.13125,0.15625,0.18125,0.191667,0.2125,0.216667,0.222917,0.220833,0.2125,0.208333,0.204167,0.202083,0.20625,0.216667,0.225,0.24375,0.260417,0.26875,0.283333,0.3,0.308333,0.314583,0.3,0.2875,0.266667,0.25625,0.254167,0.252083,0.252083,0.252083,0.252083,0.252083,0.252083,0.252083,0.254167,0.25625,0.260417,0.2625,0.260417,0.24375,0.216667,0.19375,0.183333,0.16875,0.1625,0.145833,0.122917,0.097917,0.0875,0.072917,0.06875,0.0625,0.058333,0.05625,0.047917,0.0375,0.03125,0.022917,0.020833,0.01875,0.014583]","[-0.017333,-0.017333,-0.017333,-0.017333,-0.017333,-0.017333,-0.017333,-0.017333,-0.017333,-0.017333,-0.017333,-0.017333,-0.017333,-0.017333,-0.017333,-0.017333,-0.014222,-0.011111,-0.004889,-0.001778,0.004444,0.007556,0.010667,0.010667,0.016889,0.02,0.029333,0.054222,0.097778,0.125778,0.194222,0.228444,0.3,0.356,0.405778,0.427556,0.474222,0.499111,0.555111,0.611111,0.657778,0.676444,0.707556,0.72,0.738667,0.757333,0.772889,0.779111,0.791556,0.800889,0.813333,0.828889,0.838222,0.86,0.884889,0.897333,0.925333,0.953333,0.965778,0.987556,1,1.003111,1.006222,1.009333,1.009333,1.009333,1.009333,1.009333,1.009333,1.009333,1.009333,1.009333,1.006222,1.003111,0.990667,0.962667,0.940889,0.878667,0.800889,0.710667,0.664,0.570667,0.527111,0.443111,0.368444,0.3,0.275111,0.231556,0.212889,0.188,0.166222,0.156889,0.135111,0.113333,0.104,0.079111,0.057333,0.041778,0.013778]","[0.0006,0.0167,0.0334,0.0502,0.0668,0.0831,0.0996,0.1164,0.1335,0.1498,0.1664,0.1832,0.2001,0.2164,0.2336,0.2504,0.2672,0.2838,0.3003,0.3169,0.3337,0.3503,0.367,0.3837,0.4006,0.4174,0.434,0.4506,0.4674,0.4839,0.5005,0.5174,0.5338,0.5505,0.5674,0.584,0.6008,0.6173,0.6339,0.6508,0.6673,0.6842,0.7007,0.7176,0.7343,0.7509,0.7676,0.7841,0.8008,0.8176,0.8345,0.8508,0.8675,0.8843,0.9011,0.9178,0.9345,0.9512,0.9694,0.9844,1.001,1.0179,1.0345,1.0513,1.068,1.0845,1.1011,1.118,1.1347,1.1516,1.1681,1.1848,1.2013,1.218,1.2348,1.2517,1.2682,1.2847,1.3017,1.3183,1.3349,1.3516,1.3682,1.3849,1.4017,1.4184,1.4349,1.4516,1.4682,1.4849,1.5016,1.5176,1.5352,1.5518,1.5685,1.585,1.6017,1.6176,1.6342]","[1,1,1,1,1,1,1,1,1,1,1,1,1,1,1,1,1,1,1,1,1,1,1,1,1,1,1,1,1,1,1,1,1,1,1,1,1,1,1,1,1,1,1,1,1,1,1,1,1,1,1,1,1,1,1,1,2,2,2,2,2,2,2,2,2,2,2,2,2,2,2,2,2,2,2,2,2,2,2,2,2,2,2,2,2,2,2,2,2,2,2,2,2,2,2,2,2,2,2]",10,65.9211,4,20,0,20,0,1,236185,1,SV_6SxWlNLsoRj8nqK,304B,2022-07-29_10h08.48.954,implicit_time,2021.1.4,Linux x86_64,59.95563283
control,67.5,0,0,10,NA,0,NA,0,0,0.5,FALSE,practice,0,"[-0.00625,-0.00625,-0.00625,-0.00625,-0.00625,-0.00625,-0.00625,-0.008333,-0.008333,-0.008333,-0.008333,-0.008333,-0.008333,-0.008333,-0.008333,-0.008333,-0.008333,-0.008333,-0.008333,-0.008333,-0.008333,-0.008333,-0.008333,-0.008333,-0.00625,-0.002083,0.008333,0.016667,0.0375,0.060417,0.072917,0.095833,0.125,0.14375,0.183333,0.216667,0.229167,0.25,0.260417,0.277083,0.28125,0.279167,0.277083,0.275,0.275,0.275,0.275,0.275,0.272917,0.272917,0.272917,0.275,0.277083,0.28125,0.28125,0.28125,0.28125,0.28125,0.28125,0.283333,0.285417,0.291667,0.29375,0.285417,0.258333,0.216667,0.19375,0.145833,0.120833,0.072917,0.03125,0,-0.0125,-0.035417,-0.045833,-0.060417,-0.06875,-0.070833,-0.070833,-0.06875,-0.06875,-0.066667,-0.060417,-0.052083,-0.047917,-0.041667,-0.039583,-0.0375,-0.035417,-0.03125,-0.03125,-0.025,-0.022917,-0.014583,-0.008333,-0.004167,0,0.004167,0.00625,0.008333,0.010417,0.010417,0.010417,0.010417,0.010417,0.008333]","[0.016889,0.016889,0.016889,0.02,0.02,0.023111,0.023111,0.023111,0.026222,0.026222,0.026222,0.026222,0.026222,0.026222,0.026222,0.026222,0.026222,0.026222,0.026222,0.026222,0.026222,0.026222,0.026222,0.032444,0.035556,0.054222,0.082222,0.104,0.156889,0.222222,0.259556,0.343556,0.430667,0.474222,0.561333,0.642222,0.679556,0.751111,0.782222,0.838222,0.878667,0.909778,0.922222,0.937778,0.944,0.956444,0.965778,0.975111,0.978222,0.984444,0.987556,0.990667,0.993778,1,1,1,1,1,1,1,1,0.993778,0.984444,0.959556,0.909778,0.838222,0.794667,0.698222,0.648444,0.545778,0.449333,0.368444,0.331111,0.268889,0.244,0.203556,0.178667,0.163111,0.16,0.156889,0.156889,0.156889,0.156889,0.16,0.16,0.156889,0.156889,0.150667,0.147556,0.144444,0.141333,0.132,0.128889,0.119556,0.110222,0.100889,0.097778,0.088444,0.082222,0.072889,0.066667,0.057333,0.054222,0.048,0.041778,0.035556]","[0.0006,0.0164,0.0333,0.0497,0.0664,0.0831,0.0998,0.1163,0.1331,0.1494,0.1663,0.1832,0.1998,0.2166,0.2331,0.2497,0.2668,0.283,0.3,0.3163,0.3332,0.3499,0.3666,0.3835,0.3999,0.4166,0.4333,0.4499,0.4666,0.4838,0.5002,0.5167,0.5338,0.5503,0.5671,0.5838,0.6004,0.617,0.6336,0.6505,0.6672,0.6838,0.7004,0.7173,0.7342,0.7507,0.7673,0.7838,0.8004,0.8174,0.8341,0.8507,0.8665,0.884,0.9008,0.9174,0.9344,0.9508,0.9674,0.9842,1.0006,1.0174,1.0347,1.0512,1.0678,1.0845,1.1009,1.1176,1.1343,1.1511,1.1667,1.1834,1.201,1.2177,1.2334,1.2503,1.2668,1.2844,1.301,1.3168,1.3335,1.3502,1.3669,1.3835,1.4011,1.4178,1.4336,1.4503,1.4669,1.4845,1.5004,1.518,1.5337,1.5504,1.5671,1.5838,1.6002,1.6171,1.6339,1.6506,1.667,1.6838,1.7009,1.7171,1.7339,1.7506]","[1,1,1,1,1,1,1,1,1,1,1,1,1,1,1,1,1,1,1,1,1,1,1,1,1,1,1,1,1,1,1,1,1,1,1,1,1,1,1,1,1,1,2,2,2,2,2,2,2,2,2,2,2,2,2,2,2,2,2,2,2,2,2,2,2,2,2,2,2,2,2,2,2,2,2,2,2,2,2,2,2,2,2,2,2,2,2,2,2,2,2,2,2,2,2,2,2,2,2,2,2,2,2,2,2,2]",10,68.6565,4,21,0,21,0,1,236185,1,SV_6SxWlNLsoRj8nqK,304B,2022-07-29_10h08.48.954,implicit_time,2021.1.4,Linux x86_64,59.95563283
control,45,0,0,10,NA,0,NA,0,1,0.5,FALSE,practice,1,"[0.010417,0.010417,0.010417,0.010417,0.010417,0.010417,0.010417,0.010417,0.010417,0.010417,0.010417,0.010417,0.010417,0.010417,0.010417,0.010417,0.010417,0.010417,0.010417,0.010417,0.0125,0.014583,0.022917,0.029167,0.045833,0.05625,0.077083,0.104167,0.141667,0.164583,0.210417,0.235417,0.2875,0.34375,0.397917,0.422917,0.470833,0.495833,0.547917,0.572917,0.620833,0.658333,0.679167,0.683333,0.68125,0.679167,0.679167,0.679167,0.683333,0.685417,0.689583,0.69375,0.695833,0.702083,0.708333,0.7125,0.71875,0.722917,0.725,0.725,0.725,0.720833,0.708333,0.679167,0.658333,0.60625,0.545833,0.514583,0.458333,0.404167,0.377083,0.329167,0.291667,0.272917,0.24375,0.23125,0.208333,0.191667,0.175,0.166667,0.152083,0.139583,0.135417,0.122917,0.108333,0.102083,0.085417,0.072917,0.066667,0.054167,0.04375,0.039583,0.03125]","[-0.017333,-0.017333,-0.017333,-0.017333,-0.017333,-0.017333,-0.017333,-0.017333,-0.017333,-0.017333,-0.017333,-0.017333,-0.017333,-0.017333,-0.017333,-0.017333,-0.014222,-0.014222,-0.014222,-0.014222,-0.008,-0.001778,0.007556,0.016889,0.035556,0.044889,0.076,0.116444,0.169333,0.200444,0.268889,0.306222,0.377778,0.449333,0.517778,0.552,0.611111,0.639111,0.692,0.713778,0.757333,0.794667,0.813333,0.819556,0.819556,0.819556,0.819556,0.816444,0.816444,0.813333,0.813333,0.810222,0.810222,0.807111,0.800889,0.797778,0.794667,0.791556,0.791556,0.791556,0.791556,0.788444,0.779111,0.760444,0.748,0.716889,0.676444,0.651556,0.598667,0.542667,0.514667,0.458667,0.408889,0.387111,0.349778,0.331111,0.3,0.278222,0.256444,0.247111,0.228444,0.209778,0.200444,0.178667,0.156889,0.144444,0.122667,0.097778,0.085333,0.063556,0.044889,0.038667,0.02]","[0.0006,0.0164,0.033,0.0497,0.0661,0.0831,0.0996,0.1165,0.1333,0.1499,0.1666,0.1832,0.1997,0.2166,0.2333,0.2499,0.2671,0.2833,0.2999,0.3165,0.3334,0.3501,0.3668,0.3834,0.4001,0.4167,0.4335,0.4503,0.4669,0.4834,0.5002,0.517,0.5336,0.5505,0.567,0.5836,0.6003,0.617,0.6338,0.6505,0.6671,0.6844,0.7005,0.7173,0.734,0.7506,0.7673,0.7839,0.8005,0.8174,0.8341,0.8507,0.8673,0.8839,0.9007,0.9174,0.9341,0.9508,0.9675,0.984,1.0008,1.0176,1.0343,1.051,1.0676,1.0841,1.1009,1.1177,1.1343,1.151,1.1678,1.1842,1.2009,1.2168,1.2335,1.2503,1.2679,1.2844,1.3002,1.317,1.3337,1.3512,1.367,1.3837,1.4004,1.418,1.4337,1.4512,1.4679,1.4847,1.5005,1.5172,1.5339]","[1,1,1,1,1,1,1,1,1,1,1,1,1,1,1,1,1,1,1,1,1,1,1,1,1,1,1,1,1,1,1,1,1,1,1,1,1,1,1,1,2,2,2,2,2,2,2,2,2,2,2,2,2,2,2,2,2,2,2,2,2,2,2,2,2,2,2,2,2,2,2,2,2,2,2,2,2,2,2,2,2,2,2,2,2,2,2,2,2,2,2,2,2]",11,70.708,4,22,0,22,0,1,236185,1,SV_6SxWlNLsoRj8nqK,304B,2022-07-29_10h08.48.954,implicit_time,2021.1.4,Linux x86_64,59.95563283
control,52.5,0,0,10,NA,0,NA,0,0,0.5,FALSE,practice,0,"[-0.010417,-0.0125,-0.016667,-0.016667,-0.016667,-0.016667,-0.016667,-0.016667,-0.01875,-0.01875,-0.01875,-0.01875,-0.01875,-0.01875,-0.01875,-0.01875,-0.01875,-0.01875,-0.01875,-0.01875,-0.016667,-0.014583,-0.004167,0.00625,0.03125,0.0625,0.102083,0.127083,0.18125,0.210417,0.26875,0.320833,0.341667,0.379167,0.410417,0.425,0.447917,0.466667,0.479167,0.50625,0.541667,0.564583,0.61875,0.695833,0.73125,0.766667,0.764583,0.7625,0.764583,0.76875,0.770833,0.770833,0.772917,0.772917,0.775,0.775,0.772917,0.766667,0.747917,0.725,0.710417,0.670833,0.647917,0.589583,0.51875,0.479167,0.395833,0.314583,0.277083,0.220833,0.18125,0.166667,0.139583,0.125,0.11875,0.1125,0.10625,0.10625,0.104167,0.104167,0.104167,0.104167,0.10625,0.108333,0.110417,0.1125,0.110417,0.104167,0.095833,0.091667,0.083333,0.075,0.06875,0.05625,0.045833,0.041667,0.035417,0.03125]","[-0.017333,-0.017333,-0.017333,-0.017333,-0.017333,-0.017333,-0.017333,-0.017333,-0.017333,-0.017333,-0.017333,-0.017333,-0.017333,-0.017333,-0.017333,-0.017333,-0.017333,-0.017333,-0.017333,-0.017333,-0.011111,-0.008,0.004444,0.013778,0.041778,0.076,0.125778,0.153778,0.216,0.250222,0.315556,0.371556,0.399556,0.446222,0.480444,0.496,0.524,0.548889,0.561333,0.589333,0.617333,0.632889,0.670222,0.716889,0.738667,0.760444,0.757333,0.757333,0.748,0.741778,0.738667,0.735556,0.735556,0.735556,0.735556,0.738667,0.738667,0.738667,0.732444,0.716889,0.707556,0.682667,0.664,0.623556,0.570667,0.542667,0.477333,0.412,0.380889,0.324889,0.281333,0.262667,0.234667,0.212889,0.206667,0.194222,0.188,0.184889,0.178667,0.175556,0.172444,0.169333,0.169333,0.166222,0.163111,0.16,0.153778,0.144444,0.132,0.125778,0.113333,0.097778,0.091556,0.072889,0.054222,0.048,0.032444,0.02]","[0.0005,0.0161,0.0329,0.0495,0.0662,0.0827,0.0995,0.1162,0.1331,0.1497,0.1663,0.1828,0.1995,0.2163,0.233,0.2496,0.2664,0.2831,0.2995,0.3164,0.333,0.3498,0.3668,0.3831,0.3999,0.4165,0.433,0.4499,0.4667,0.4835,0.5,0.5168,0.5334,0.5502,0.5667,0.5836,0.6002,0.6167,0.6351,0.6503,0.667,0.6837,0.7002,0.7169,0.7337,0.7504,0.7669,0.7838,0.8004,0.8171,0.8338,0.8505,0.8671,0.8838,0.9006,0.9172,0.934,0.9506,0.9672,0.9842,1.0006,1.0172,1.0339,1.0509,1.0689,1.084,1.1002,1.1168,1.1334,1.151,1.1674,1.1834,1.2002,1.2168,1.2334,1.25,1.2675,1.2834,1.3001,1.3168,1.3334,1.3501,1.3676,1.3836,1.4003,1.4169,1.4335,1.4504,1.4676,1.4837,1.5004,1.5169,1.5335,1.5503,1.5669,1.5838,1.6003,1.617]","[1,1,1,1,1,1,1,1,1,1,1,1,1,1,1,1,1,1,1,1,1,1,1,1,1,1,1,1,1,1,1,1,1,1,1,1,1,1,1,1,1,1,1,2,2,2,2,2,2,2,2,2,2,2,2,2,2,2,2,2,2,2,2,2,2,2,2,2,2,2,2,2,2,2,2,2,2,2,2,2,2,2,2,2,2,2,2,2,2,2,2,2,2,2,2,2,2,2]",11,73.2098,4,23,0,23,0,1,236185,1,SV_6SxWlNLsoRj8nqK,304B,2022-07-29_10h08.48.954,implicit_time,2021.1.4,Linux x86_64,59.95563283
control,135,0,0,10,NA,0,NA,0,1,0.5,FALSE,practice,1,"[0.002083,0.002083,0.002083,0.002083,0.002083,0.002083,0.002083,0.002083,0.002083,0.002083,0.002083,0.002083,0.002083,0.002083,0.002083,0.002083,0.002083,0.002083,0.002083,-0.002083,-0.00625,-0.0125,-0.01875,-0.033333,-0.054167,-0.083333,-0.1,-0.1375,-0.158333,-0.195833,-0.233333,-0.275,-0.295833,-0.34375,-0.370833,-0.422917,-0.470833,-0.516667,-0.541667,-0.591667,-0.61875,-0.660417,-0.683333,-0.695833,-0.710417,-0.71875,-0.729167,-0.75,-0.770833,-0.78125,-0.783333,-0.783333,-0.783333,-0.785417,-0.785417,-0.78125,-0.775,-0.754167,-0.741667,-0.716667,-0.69375,-0.66875,-0.652083,-0.610417,-0.5875,-0.541667,-0.497917,-0.475,-0.420833,-0.3625,-0.333333,-0.28125,-0.233333,-0.2125,-0.16875,-0.133333,-0.104167,-0.091667,-0.072917,-0.066667,-0.05625,-0.047917,-0.035417]","[0.001333,0.001333,0.001333,0.001333,0.001333,0.001333,0.001333,0.001333,0.001333,0.001333,0.001333,0.001333,0.001333,0.001333,0.001333,0.001333,0.001333,0.001333,0.004444,0.007556,0.010667,0.02,0.029333,0.044889,0.069778,0.104,0.122667,0.16,0.181778,0.222222,0.265778,0.312444,0.334222,0.380889,0.402667,0.446222,0.489778,0.530222,0.548889,0.58,0.595556,0.620444,0.645333,0.673333,0.698222,0.710667,0.72,0.741778,0.757333,0.766667,0.766667,0.766667,0.766667,0.766667,0.766667,0.769778,0.769778,0.772889,0.772889,0.766667,0.748,0.723111,0.710667,0.682667,0.664,0.620444,0.570667,0.542667,0.489778,0.433778,0.405778,0.349778,0.296889,0.268889,0.222222,0.181778,0.141333,0.125778,0.094667,0.079111,0.054222,0.035556,0.02]","[0.0007,0.0161,0.0329,0.0496,0.0661,0.0833,0.0996,0.1163,0.133,0.1507,0.1669,0.1831,0.1994,0.2164,0.2329,0.2497,0.2664,0.2832,0.3,0.3166,0.3333,0.3501,0.3667,0.3828,0.3999,0.4169,0.4334,0.45,0.4672,0.4834,0.5001,0.5169,0.5336,0.5502,0.5669,0.5836,0.6002,0.617,0.6336,0.6503,0.6667,0.6836,0.7003,0.7169,0.7384,0.7507,0.7674,0.7835,0.8006,0.8175,0.8338,0.8505,0.8672,0.8839,0.9006,0.9173,0.9338,0.9507,0.9675,0.9836,1.0005,1.0175,1.0338,1.0504,1.0674,1.0841,1.1005,1.1174,1.1343,1.1507,1.1677,1.1845,1.201,1.2176,1.2339,1.2511,1.2679,1.2843,1.3011,1.3179,1.3342,1.351,1.3678]","[1,1,1,1,1,1,1,1,1,1,1,1,1,1,1,1,1,1,1,1,1,1,1,1,1,1,1,1,1,1,1,1,1,1,1,1,1,1,1,1,1,1,1,2,2,2,2,2,2,2,2,2,2,2,2,2,2,2,2,2,2,2,2,2,2,2,2,2,2,2,2,2,2,2,2,2,2,2,2,2,2,2,2]",12,75.8128,4,24,0,24,0,1,236185,1,SV_6SxWlNLsoRj8nqK,304B,2022-07-29_10h08.48.954,implicit_time,2021.1.4,Linux x86_64,59.95563283
control,142.5,0,0,10,NA,0,NA,0,0,0.5,FALSE,practice,0,"[-0.027083,-0.022917,-0.020833,-0.016667,-0.0125,-0.0125,-0.008333,-0.00625,-0.004167,-0.002083,0,0,0.002083,0.004167,0.004167,0.00625,0.00625,0.00625,0.00625,0.00625,0.00625,0.00625,0.00625,0.004167,-0.002083,-0.014583,-0.020833,-0.039583,-0.0625,-0.089583,-0.10625,-0.14375,-0.166667,-0.216667,-0.272917,-0.327083,-0.352083,-0.402083,-0.427083,-0.48125,-0.535417,-0.583333,-0.60625,-0.64375,-0.6625,-0.7,-0.733333,-0.764583,-0.777083,-0.797917,-0.81875,-0.827083,-0.84375,-0.852083,-0.852083,-0.852083,-0.852083,-0.85,-0.852083,-0.85,-0.84375,-0.820833,-0.804167,-0.7625,-0.714583,-0.666667,-0.641667,-0.589583,-0.5625,-0.504167,-0.445833,-0.416667,-0.3625,-0.3125,-0.289583,-0.24375,-0.222917,-0.185417,-0.15625,-0.13125,-0.120833,-0.102083,-0.095833,-0.085417,-0.079167,-0.075,-0.075,-0.072917,-0.070833,-0.070833,-0.070833,-0.070833,-0.06875,-0.06875,-0.06875,-0.06875,-0.066667,-0.064583,-0.0625,-0.05625,-0.05,-0.04375,-0.035417,-0.022917,-0.016667,-0.00625,0.002083,0.004167,0.00625,0.008333,0.008333,0.010417,0.010417,0.010417,0.008333,0.008333,0.00625,0.004167,0.002083]","[0.02,0.02,0.02,0.02,0.02,0.02,0.016889,0.016889,0.013778,0.013778,0.010667,0.007556,0.004444,0.001333,0.001333,-0.001778,-0.004889,-0.008,-0.008,-0.008,-0.008,-0.008,-0.008,-0.008,-0.008,-0.004889,-0.004889,0.001333,0.013778,0.032444,0.044889,0.076,0.094667,0.132,0.172444,0.212889,0.234667,0.281333,0.303111,0.343556,0.384,0.424444,0.443111,0.483556,0.502222,0.536444,0.567556,0.598667,0.611111,0.636,0.660889,0.670222,0.685778,0.692,0.692,0.692,0.692,0.692,0.692,0.692,0.692,0.682667,0.676444,0.660889,0.636,0.604889,0.586222,0.542667,0.517778,0.464889,0.412,0.384,0.328,0.275111,0.250222,0.203556,0.178667,0.141333,0.104,0.072889,0.057333,0.032444,0.023111,0.001333,-0.014222,-0.029778,-0.032889,-0.042222,-0.045333,-0.051556,-0.057778,-0.060889,-0.064,-0.070222,-0.073333,-0.076444,-0.079556,-0.079556,-0.082667,-0.082667,-0.082667,-0.079556,-0.079556,-0.073333,-0.070222,-0.064,-0.057778,-0.054667,-0.054667,-0.051556,-0.051556,-0.048444,-0.048444,-0.048444,-0.048444,-0.045333,-0.045333,-0.042222,-0.039111]","[0.0005,0.0197,0.0336,0.0502,0.0665,0.0832,0.0995,0.1164,0.1331,0.1496,0.1663,0.1831,0.1997,0.2163,0.2332,0.2497,0.2663,0.2833,0.2999,0.3162,0.3333,0.3497,0.3664,0.3832,0.3999,0.4165,0.4335,0.4502,0.4666,0.4859,0.5011,0.5173,0.5342,0.5506,0.5674,0.5842,0.6007,0.6172,0.6342,0.6508,0.6675,0.6843,0.7008,0.7175,0.7348,0.7508,0.7676,0.7845,0.8011,0.8176,0.839,0.8524,0.8703,0.8847,0.9013,0.9172,0.9343,0.9508,0.9687,0.9849,1.0012,1.0179,1.0349,1.0513,1.0678,1.0847,1.1013,1.1182,1.1348,1.1514,1.168,1.1847,1.2014,1.2179,1.2349,1.2515,1.2675,1.2844,1.3009,1.3176,1.3345,1.351,1.3679,1.3844,1.4016,1.4178,1.4345,1.4511,1.4678,1.4849,1.5013,1.518,1.5348,1.5512,1.5678,1.5847,1.6012,1.6179,1.6347,1.6512,1.668,1.6848,1.7012,1.7181,1.7347,1.7514,1.7682,1.7848,1.8013,1.8181,1.8348,1.8514,1.8681,1.8849,1.9015,1.9182,1.9351,1.9517,1.9682]","[1,1,1,1,1,1,1,1,1,1,1,1,1,1,1,1,1,1,1,1,1,1,1,1,1,1,1,1,1,1,1,1,1,1,1,1,1,1,1,1,1,1,1,1,1,1,1,2,2,2,2,2,2,2,2,2,2,2,2,2,2,2,2,2,2,2,2,2,2,2,2,2,2,2,2,2,2,2,2,2,2,2,2,2,2,2,2,2,2,2,2,2,2,2,2,2,2,2,2,2,2,2,2,2,2,2,2,2,2,2,2,2,2,2,2,2,2,2,2]",12,78.7492,4,25,0,25,0,1,236185,1,SV_6SxWlNLsoRj8nqK,304B,2022-07-29_10h08.48.954,implicit_time,2021.1.4,Linux x86_64,59.95563283
control,45,0,0,10,NA,0,NA,0,1,0.5,FALSE,practice,1,"[-0.01875,-0.01875,-0.01875,-0.01875,-0.01875,-0.01875,-0.01875,-0.016667,-0.016667,-0.016667,-0.016667,-0.016667,-0.016667,-0.016667,-0.016667,-0.016667,-0.016667,-0.016667,-0.016667,-0.016667,-0.016667,-0.010417,0.002083,0.020833,0.03125,0.05,0.0625,0.089583,0.13125,0.183333,0.208333,0.258333,0.283333,0.333333,0.385417,0.435417,0.460417,0.50625,0.525,0.55625,0.575,0.5875,0.6,0.60625,0.622917,0.629167,0.635417,0.652083,0.677083,0.691667,0.716667,0.729167,0.75,0.760417,0.760417,0.764583,0.766667,0.775,0.779167,0.78125,0.779167,0.770833,0.754167,0.74375,0.714583,0.695833,0.64375,0.575,0.5,0.4625,0.397917,0.370833,0.322917,0.270833,0.21875,0.19375,0.154167,0.1375,0.1125,0.0875,0.064583,0.05625,0.04375,0.039583,0.033333,0.033333,0.03125,0.03125,0.029167,0.027083,0.022917,0.020833,0.016667]","[0.007556,0.007556,0.007556,0.007556,0.007556,0.007556,0.007556,0.007556,0.007556,0.007556,0.007556,0.007556,0.007556,0.007556,0.007556,0.007556,0.007556,0.007556,0.007556,0.007556,0.010667,0.013778,0.023111,0.038667,0.048,0.072889,0.088444,0.128889,0.184889,0.250222,0.284444,0.349778,0.384,0.446222,0.505333,0.552,0.576889,0.614222,0.629778,0.657778,0.676444,0.688889,0.695111,0.698222,0.710667,0.713778,0.716889,0.723111,0.729333,0.735556,0.741778,0.744889,0.751111,0.751111,0.751111,0.744889,0.744889,0.738667,0.732444,0.729333,0.723111,0.716889,0.707556,0.701333,0.682667,0.670222,0.636,0.598667,0.548889,0.524,0.471111,0.446222,0.396444,0.349778,0.303111,0.281333,0.240889,0.225333,0.194222,0.166222,0.144444,0.135111,0.122667,0.116444,0.107111,0.097778,0.088444,0.085333,0.072889,0.066667,0.054222,0.041778,0.029333]","[0.0006,0.0167,0.0329,0.0497,0.066,0.0833,0.0995,0.1165,0.1327,0.15,0.1661,0.183,0.1997,0.2165,0.2327,0.25,0.2668,0.2835,0.3002,0.3167,0.3333,0.3503,0.3667,0.3837,0.4003,0.4168,0.4335,0.4504,0.4669,0.4837,0.5004,0.5171,0.5336,0.5505,0.5669,0.5838,0.6006,0.6171,0.6339,0.6505,0.6672,0.6857,0.703,0.7183,0.744,0.7578,0.7676,0.7845,0.804,0.8179,0.8345,0.851,0.8676,0.884,0.9011,0.9174,0.9342,0.9509,0.9675,0.9843,1.001,1.0175,1.0341,1.0511,1.0676,1.0841,1.1012,1.1176,1.1344,1.1512,1.1677,1.1844,1.2013,1.2178,1.2344,1.2512,1.2683,1.2843,1.3013,1.3181,1.3345,1.3513,1.368,1.3845,1.4014,1.4183,1.4348,1.4517,1.4682,1.4846,1.5015,1.5181,1.5347]","[1,1,1,1,1,1,1,1,1,1,1,1,1,1,1,1,1,1,1,1,1,1,1,1,1,1,1,1,1,1,1,1,1,1,1,1,1,1,1,1,1,1,1,1,1,1,1,2,2,2,2,2,2,2,2,2,2,2,2,2,2,2,2,2,2,2,2,2,2,2,2,2,2,2,2,2,2,2,2,2,2,2,2,2,2,2,2,2,2,2,2,2,2]",13,80.8016,4,26,0,26,0,1,236185,1,SV_6SxWlNLsoRj8nqK,304B,2022-07-29_10h08.48.954,implicit_time,2021.1.4,Linux x86_64,59.95563283
control,37.5,0,0,10,NA,0,NA,0,0,0.5,FALSE,practice,0,"[0.008333,0.008333,0.010417,0.010417,0.010417,0.010417,0.010417,0.010417,0.010417,0.010417,0.010417,0.010417,0.010417,0.010417,0.010417,0.010417,0.010417,0.010417,0.010417,0.010417,0.010417,0.010417,0.010417,0.010417,0.010417,0.014583,0.016667,0.029167,0.05,0.064583,0.1,0.152083,0.21875,0.25625,0.3375,0.383333,0.472917,0.560417,0.633333,0.6625,0.710417,0.729167,0.754167,0.766667,0.772917,0.777083,0.785417,0.785417,0.785417,0.783333,0.783333,0.783333,0.783333,0.785417,0.795833,0.816667,0.847917,0.860417,0.875,0.875,0.872917,0.872917,0.872917,0.870833,0.854167,0.8375,0.791667,0.727083,0.647917,0.560417,0.516667,0.475,0.39375,0.325,0.291667,0.233333,0.179167,0.15625,0.114583,0.08125,0.06875,0.05,0.04375,0.041667,0.0375,0.035417,0.035417,0.035417,0.035417,0.033333,0.03125,0.027083,0.025,0.022917,0.022917,0.022917,0.022917,0.020833]","[-0.017333,-0.014222,-0.014222,-0.011111,-0.008,-0.008,-0.004889,-0.001778,-0.001778,-0.001778,0.001333,0.001333,0.004444,0.004444,0.004444,0.004444,0.004444,0.004444,0.004444,0.004444,0.004444,0.004444,0.004444,0.004444,0.004444,0.010667,0.016889,0.032444,0.057333,0.072889,0.113333,0.166222,0.228444,0.262667,0.328,0.362222,0.430667,0.489778,0.536444,0.558222,0.592444,0.601778,0.617333,0.620444,0.617333,0.614222,0.608,0.604889,0.601778,0.598667,0.595556,0.595556,0.595556,0.595556,0.601778,0.611111,0.626667,0.632889,0.642222,0.645333,0.645333,0.645333,0.642222,0.642222,0.629778,0.620444,0.595556,0.555111,0.505333,0.449333,0.418222,0.387111,0.324889,0.268889,0.244,0.194222,0.153778,0.135111,0.104,0.082222,0.072889,0.063556,0.057333,0.057333,0.057333,0.057333,0.057333,0.057333,0.057333,0.057333,0.054222,0.051111,0.051111,0.048,0.041778,0.041778,0.038667,0.035556]","[0.0006,0.017,0.0329,0.0496,0.0661,0.0829,0.0995,0.1161,0.1328,0.1494,0.1661,0.1827,0.1998,0.2163,0.2325,0.2497,0.2661,0.283,0.2998,0.3158,0.3326,0.3494,0.366,0.3828,0.3999,0.4165,0.4332,0.45,0.467,0.4838,0.5005,0.5172,0.5339,0.5505,0.5673,0.5837,0.6008,0.6172,0.6341,0.6509,0.6675,0.6842,0.7007,0.7193,0.7341,0.7509,0.7684,0.7843,0.8011,0.8177,0.8342,0.851,0.8673,0.884,0.9011,0.9177,0.9346,0.9512,0.968,0.9844,1.0011,1.0179,1.034,1.0513,1.0679,1.0846,1.1013,1.1181,1.1347,1.1533,1.1681,1.1846,1.2016,1.218,1.2348,1.252,1.2677,1.2841,1.3008,1.3177,1.3341,1.351,1.3679,1.3844,1.4009,1.4178,1.4343,1.4508,1.468,1.4843,1.5011,1.5178,1.5345,1.5511,1.5681,1.5843,1.601,1.6181]","[1,1,1,1,1,1,1,1,1,1,1,1,1,1,1,1,1,1,1,1,1,1,1,1,1,1,1,1,1,1,1,1,1,1,1,1,1,1,1,1,1,1,2,2,2,2,2,2,2,2,2,2,2,2,2,2,2,2,2,2,2,2,2,2,2,2,2,2,2,2,2,2,2,2,2,2,2,2,2,2,2,2,2,2,2,2,2,2,2,2,2,2,2,2,2,2,2,2]",13,82.9377,4,27,0,27,0,1,236185,1,SV_6SxWlNLsoRj8nqK,304B,2022-07-29_10h08.48.954,implicit_time,2021.1.4,Linux x86_64,59.95563283
control,75,0,0,10,NA,0,NA,0,1,0.5,FALSE,practice,1,"[0.010417,0.010417,0.010417,0.010417,0.010417,0.010417,0.010417,0.010417,0.010417,0.010417,0.010417,0.010417,0.010417,0.010417,0.010417,0.010417,0.010417,0.008333,0.008333,0.00625,0.00625,0.00625,0.00625,0.008333,0.014583,0.01875,0.03125,0.047917,0.05625,0.070833,0.0875,0.09375,0.114583,0.145833,0.164583,0.2,0.222917,0.229167,0.235417,0.241667,0.245833,0.25,0.247917,0.245833,0.245833,0.25625,0.264583,0.285417,0.302083,0.30625,0.314583,0.316667,0.316667,0.314583,0.302083,0.295833,0.285417,0.277083,0.272917,0.266667,0.2625,0.264583,0.264583,0.266667,0.266667,0.272917,0.275,0.277083,0.272917,0.260417,0.25,0.227083,0.2125,0.185417,0.160417,0.141667,0.13125,0.108333,0.1,0.083333,0.077083,0.075,0.075,0.070833,0.066667,0.060417,0.05625,0.054167,0.054167,0.054167,0.054167,0.052083,0.052083,0.05,0.047917,0.045833,0.045833,0.04375,0.04375,0.045833,0.045833,0.05,0.052083,0.054167,0.05625,0.058333,0.058333,0.058333,0.058333,0.05625,0.054167,0.052083,0.05,0.05,0.047917,0.045833,0.041667,0.0375,0.0375,0.035417,0.03125,0.029167,0.025,0.020833,0.020833,0.01875,0.014583]","[0.010667,0.010667,0.010667,0.010667,0.010667,0.010667,0.010667,0.010667,0.010667,0.010667,0.010667,0.010667,0.010667,0.010667,0.010667,0.010667,0.010667,0.010667,0.013778,0.016889,0.02,0.029333,0.035556,0.057333,0.085333,0.104,0.150667,0.200444,0.222222,0.272,0.318667,0.343556,0.390222,0.44,0.461778,0.505333,0.539556,0.552,0.576889,0.598667,0.611111,0.632889,0.660889,0.676444,0.713778,0.751111,0.772889,0.813333,0.853778,0.875556,0.912889,0.947111,0.959556,0.987556,1,1,1.003111,1.003111,1.003111,1.006222,1.006222,1.006222,1.006222,1.006222,1.003111,1,0.996889,0.981333,0.956444,0.916,0.891111,0.828889,0.791556,0.707556,0.617333,0.524,0.477333,0.393333,0.356,0.290667,0.240889,0.206667,0.194222,0.175556,0.169333,0.163111,0.16,0.16,0.156889,0.153778,0.150667,0.144444,0.138222,0.132,0.132,0.125778,0.122667,0.116444,0.110222,0.107111,0.104,0.097778,0.097778,0.094667,0.091556,0.091556,0.091556,0.091556,0.091556,0.091556,0.091556,0.091556,0.091556,0.091556,0.091556,0.085333,0.079111,0.072889,0.072889,0.066667,0.057333,0.054222,0.048,0.041778,0.041778,0.038667,0.035556]","[0.0005,0.0158,0.0323,0.049,0.0659,0.0825,0.0995,0.1156,0.1327,0.1493,0.1658,0.1821,0.1996,0.2163,0.2329,0.2495,0.266,0.2828,0.2998,0.3164,0.3329,0.3498,0.3665,0.3829,0.4,0.4164,0.433,0.4499,0.4664,0.4832,0.4999,0.5167,0.533,0.55,0.5664,0.5831,0.6004,0.6167,0.6331,0.6502,0.6668,0.6832,0.7003,0.7166,0.7333,0.7502,0.7666,0.7834,0.8003,0.8167,0.8338,0.8527,0.867,0.8838,0.9005,0.9169,0.9336,0.9505,0.9669,0.9836,1.0007,1.017,1.0337,1.0506,1.0673,1.0838,1.1014,1.1176,1.1342,1.1509,1.1672,1.1841,1.2009,1.2177,1.2372,1.2511,1.2674,1.2841,1.3011,1.3174,1.3341,1.3513,1.3674,1.3845,1.4013,1.4175,1.4341,1.4511,1.4675,1.4844,1.5011,1.5176,1.5345,1.5512,1.5679,1.5843,1.6012,1.6177,1.6343,1.6515,1.6679,1.6845,1.7014,1.7178,1.7345,1.7514,1.7682,1.7844,1.8015,1.8179,1.8358,1.8517,1.868,1.8848,1.9016,1.9184,1.9348,1.9518,1.9682,1.9849,2.0018,2.0182,2.0349,2.0519,2.0682,2.0849,2.1022]","[1,1,1,1,1,1,1,1,1,1,1,1,1,1,1,1,1,1,1,1,1,1,1,1,1,1,1,1,1,1,1,1,1,1,1,1,1,1,1,1,1,1,1,1,1,1,1,1,1,1,2,2,2,2,2,2,2,2,2,2,2,2,2,2,2,2,2,2,2,2,2,2,2,2,2,2,2,2,2,2,2,2,2,2,2,2,2,2,2,2,2,2,2,2,2,2,2,2,2,2,2,2,2,2,2,2,2,2,2,2,2,2,2,2,2,2,2,2,2,2,2,2,2,2,2,2,2]",14,85.8414,4,28,0,28,0,1,236185,1,SV_6SxWlNLsoRj8nqK,304B,2022-07-29_10h08.48.954,implicit_time,2021.1.4,Linux x86_64,59.95563283
control,67.5,0,0,10,NA,0,NA,0,0,0.5,FALSE,practice,0,"[0.022917,0.022917,0.020833,0.020833,0.01875,0.01875,0.01875,0.01875,0.01875,0.01875,0.01875,0.01875,0.01875,0.01875,0.01875,0.01875,0.01875,0.01875,0.01875,0.01875,0.016667,0.016667,0.027083,0.05,0.066667,0.10625,0.127083,0.16875,0.20625,0.24375,0.260417,0.291667,0.30625,0.33125,0.352083,0.366667,0.372917,0.3875,0.397917,0.425,0.447917,0.460417,0.464583,0.466667,0.4625,0.45,0.439583,0.435417,0.429167,0.425,0.422917,0.420833,0.420833,0.420833,0.420833,0.420833,0.410417,0.402083,0.379167,0.364583,0.335417,0.304167,0.275,0.260417,0.23125,0.21875,0.2,0.185417,0.175,0.170833,0.166667,0.164583,0.1625,0.1625,0.160417,0.160417,0.160417,0.160417,0.160417,0.160417,0.160417,0.160417,0.160417,0.160417,0.158333,0.15625,0.152083,0.15,0.14375,0.139583,0.13125,0.120833,0.110417,0.10625,0.095833,0.089583,0.083333,0.077083,0.075,0.075,0.075,0.072917,0.072917,0.070833,0.066667,0.064583,0.0625,0.060417,0.05625,0.052083,0.05,0.047917,0.041667,0.039583,0.033333]","[0.023111,0.023111,0.023111,0.026222,0.026222,0.026222,0.026222,0.026222,0.026222,0.026222,0.026222,0.026222,0.026222,0.026222,0.023111,0.023111,0.023111,0.026222,0.026222,0.029333,0.032444,0.041778,0.063556,0.100889,0.122667,0.175556,0.206667,0.275111,0.346667,0.421333,0.458667,0.530222,0.561333,0.623556,0.673333,0.72,0.741778,0.782222,0.800889,0.838222,0.872444,0.900444,0.912889,0.931556,0.937778,0.940889,0.944,0.947111,0.947111,0.950222,0.950222,0.950222,0.950222,0.950222,0.950222,0.940889,0.919111,0.903556,0.86,0.832,0.769778,0.698222,0.620444,0.583111,0.508444,0.471111,0.405778,0.349778,0.296889,0.272,0.231556,0.212889,0.178667,0.153778,0.135111,0.125778,0.113333,0.107111,0.097778,0.088444,0.082222,0.076,0.069778,0.066667,0.057333,0.054222,0.048,0.044889,0.038667,0.035556,0.029333,0.02,0.013778,0.010667,0.004444,0.001333,-0.001778,-0.008,-0.008,-0.008,-0.008,-0.011111,-0.011111,-0.011111,-0.011111,-0.011111,-0.011111,-0.011111,-0.011111,-0.014222,-0.014222,-0.014222,-0.014222,-0.014222,-0.014222]","[0.0006,0.0173,0.0333,0.0498,0.0665,0.0833,0.0999,0.1166,0.1328,0.1497,0.1665,0.1835,0.2026,0.2166,0.2336,0.2498,0.2666,0.2835,0.2998,0.3166,0.3335,0.35,0.3672,0.3841,0.4005,0.4172,0.4343,0.4506,0.4673,0.4842,0.5007,0.5174,0.5344,0.5507,0.5674,0.5843,0.6007,0.6177,0.6345,0.6511,0.6677,0.6844,0.701,0.7176,0.7347,0.751,0.7701,0.7848,0.8011,0.8178,0.8348,0.8513,0.8681,0.8842,0.9007,0.9176,0.935,0.9515,0.9681,0.9851,1.0014,1.0181,1.0349,1.0513,1.0681,1.0849,1.1015,1.1181,1.135,1.151,1.1679,1.1847,1.2009,1.2177,1.2346,1.2512,1.2677,1.2848,1.3011,1.3177,1.335,1.3511,1.3679,1.3847,1.4012,1.4179,1.4349,1.4513,1.4684,1.4848,1.5015,1.5179,1.535,1.5516,1.5679,1.5848,1.6016,1.6182,1.6351,1.6513,1.6682,1.6849,1.7014,1.7181,1.735,1.7516,1.7684,1.7851,1.8019,1.8184,1.8354,1.852,1.8686,1.8852,1.9017]","[1,1,1,1,1,1,1,1,1,1,1,1,1,1,1,1,1,1,1,1,1,1,1,1,1,1,1,1,1,1,1,1,1,1,1,1,1,1,1,1,2,2,2,2,2,2,2,2,2,2,2,2,2,2,2,2,2,2,2,2,2,2,2,2,2,2,2,2,2,2,2,2,2,2,2,2,2,2,2,2,2,2,2,2,2,2,2,2,2,2,2,2,2,2,2,2,2,2,2,2,2,2,2,2,2,2,2,2,2,2,2,2,2,2,2]",14,88.2603,4,29,0,29,0,1,236185,1,SV_6SxWlNLsoRj8nqK,304B,2022-07-29_10h08.48.954,implicit_time,2021.1.4,Linux x86_64,59.95563283
control,105,0,0,10,NA,0,NA,0,1,0.5,FALSE,practice,1,"[-0.016667,-0.016667,-0.016667,-0.016667,-0.016667,-0.016667,-0.016667,-0.016667,-0.016667,-0.016667,-0.016667,-0.016667,-0.016667,-0.016667,-0.016667,-0.016667,-0.016667,-0.016667,-0.016667,-0.016667,-0.016667,-0.01875,-0.01875,-0.020833,-0.022917,-0.025,-0.029167,-0.035417,-0.039583,-0.041667,-0.05,-0.05625,-0.070833,-0.089583,-0.10625,-0.114583,-0.125,-0.129167,-0.133333,-0.139583,-0.152083,-0.160417,-0.170833,-0.175,-0.175,-0.175,-0.177083,-0.185417,-0.195833,-0.197917,-0.2,-0.2,-0.197917,-0.189583,-0.18125,-0.177083,-0.166667,-0.1625,-0.15625,-0.147917,-0.135417,-0.127083,-0.110417,-0.1,-0.079167,-0.05625,-0.035417,-0.025,-0.00625,0.008333,0.0125,0.01875,0.01875,0.016667,0.016667,0.0125,0.0125,0.00625]","[-0.001778,-0.001778,-0.001778,-0.001778,-0.001778,-0.001778,-0.001778,-0.001778,-0.001778,-0.001778,-0.001778,-0.001778,0.001333,0.001333,0.001333,0.001333,0.001333,0.001333,0.004444,0.004444,0.007556,0.010667,0.016889,0.029333,0.044889,0.054222,0.085333,0.125778,0.178667,0.206667,0.272,0.309333,0.380889,0.455556,0.530222,0.567556,0.645333,0.682667,0.757333,0.822667,0.884889,0.912889,0.962667,1.006222,1.015556,1.021778,1.021778,1.018667,1.018667,1.015556,1.015556,1.015556,1.015556,1.006222,0.981333,0.965778,0.925333,0.900444,0.844444,0.779111,0.713778,0.679556,0.614222,0.58,0.511556,0.449333,0.390222,0.359111,0.303111,0.253333,0.228444,0.178667,0.138222,0.119556,0.088444,0.063556,0.054222,0.035556]","[0.0006,0.0164,0.033,0.0495,0.066,0.0832,0.0999,0.1166,0.1332,0.1496,0.1668,0.1831,0.1998,0.2166,0.2331,0.2498,0.2668,0.2834,0.3002,0.3168,0.3335,0.3501,0.367,0.3833,0.4005,0.4172,0.4336,0.4501,0.4673,0.4836,0.5001,0.5172,0.5337,0.5505,0.5672,0.5836,0.6004,0.6171,0.6338,0.6506,0.6672,0.6841,0.7008,0.7197,0.7361,0.7506,0.7673,0.784,0.8009,0.8174,0.8338,0.8506,0.8674,0.8841,0.9007,0.9176,0.9342,0.9509,0.9676,0.9842,1.0009,1.0176,1.0342,1.0509,1.0677,1.0841,1.101,1.118,1.1342,1.151,1.1679,1.1846,1.2009,1.2181,1.2343,1.2511,1.2679,1.2847]","[1,1,1,1,1,1,1,1,1,1,1,1,1,1,1,1,1,1,1,1,1,1,1,1,1,1,1,1,1,1,1,1,1,1,1,1,1,1,1,1,1,1,2,2,2,2,2,2,2,2,2,2,2,2,2,2,2,2,2,2,2,2,2,2,2,2,2,2,2,2,2,2,2,2,2,2,2,2]",15,90.0626,4,30,0,30,0,1,236185,1,SV_6SxWlNLsoRj8nqK,304B,2022-07-29_10h08.48.954,implicit_time,2021.1.4,Linux x86_64,59.95563283
control,112.5,0,0,10,NA,0,NA,0,0,0.5,FALSE,practice,0,"[0.008333,0.008333,0.008333,0.008333,0.008333,0.008333,0.008333,0.008333,0.008333,0.008333,0.008333,0.008333,0.008333,0.008333,0.008333,0.008333,0.008333,0.008333,0.008333,0.008333,0.00625,0.00625,0.002083,0,-0.008333,-0.022917,-0.045833,-0.060417,-0.095833,-0.13125,-0.15,-0.183333,-0.2125,-0.227083,-0.25625,-0.28125,-0.291667,-0.30625,-0.322917,-0.333333,-0.352083,-0.36875,-0.375,-0.383333,-0.38125,-0.379167,-0.366667,-0.35,-0.341667,-0.325,-0.314583,-0.295833,-0.272917,-0.245833,-0.23125,-0.202083,-0.185417,-0.154167,-0.122917,-0.089583,-0.072917,-0.045833,-0.033333,-0.0125,0.002083,0.014583]","[-0.008,-0.008,-0.004889,-0.004889,-0.004889,-0.004889,-0.004889,-0.004889,-0.004889,-0.004889,-0.004889,-0.004889,-0.004889,-0.004889,-0.004889,-0.004889,-0.004889,-0.004889,-0.004889,-0.001778,0.001333,0.004444,0.013778,0.023111,0.041778,0.072889,0.113333,0.141333,0.200444,0.268889,0.309333,0.393333,0.486667,0.530222,0.620444,0.704444,0.741778,0.813333,0.869333,0.894222,0.928444,0.950222,0.959556,0.968889,0.968889,0.968889,0.956444,0.931556,0.916,0.878667,0.856889,0.807111,0.754222,0.692,0.660889,0.589333,0.552,0.480444,0.405778,0.328,0.293778,0.222222,0.188,0.125778,0.072889,0.026222]","[0.0005,0.0163,0.0332,0.0495,0.0661,0.0828,0.0996,0.1162,0.1327,0.1498,0.1661,0.1824,0.1998,0.2163,0.2332,0.2497,0.2665,0.2829,0.2998,0.3166,0.3332,0.3503,0.3668,0.3835,0.4002,0.4171,0.4337,0.4507,0.4674,0.484,0.5009,0.5173,0.5338,0.5509,0.5677,0.5843,0.6009,0.6175,0.6347,0.6509,0.6676,0.6844,0.7033,0.7176,0.7341,0.7509,0.7677,0.7844,0.801,0.8178,0.8345,0.8509,0.8678,0.8842,0.9009,0.9181,0.9344,0.9511,0.9679,0.9845,1.001,1.0175,1.0339,1.0506,1.0677,1.084]","[1,1,1,1,1,1,1,1,1,1,1,1,1,1,1,1,1,1,1,1,1,1,1,1,1,1,1,1,1,1,1,1,1,1,1,1,1,1,1,1,2,2,2,2,2,2,2,2,2,2,2,2,2,2,2,2,2,2,2,2,2,2,2,2,2,2]",15,92.0815,4,31,0,31,0,1,236185,1,SV_6SxWlNLsoRj8nqK,304B,2022-07-29_10h08.48.954,implicit_time,2021.1.4,Linux x86_64,59.95563283
