condition_label,target,rotation_deg,cursorjump,targetjump,arrow_offset,aiming_target,aiming_direction,aiming_type,feedback_type,hold_duration,hold_target,phase,trialtype,mousex_rel,mousey_rel,mouse_time,step,points,cumulativetime,version,trials.thisRepN,trials.thisTrialN,trials.thisN,trials.thisIndex,trials.ran,participant,condition,qualtrics,group,date,expName,psychopyVersion,OS,frameRate
terminal,105,0,0,10,NA,0,NA,0,1,0.5,FALSE,practice,1,"[0.004167,0.004167,0.004167,0.004167,0.004167,0.004167,0.00625,0.00625,0.008333,0.008333,0.008333,0.008333,0.008333,0.008333,0.008333,0.008333,0.008333,0.008333,0.008333,0.008333,0.008333,0.008333,0.008333,0.008333,0.008333,0.008333,0.008333,0.008333,0.008333,0.008333,0.008333,0.008333,0.004167,0,-0.008333,-0.01875,-0.033333,-0.041667,-0.0625,-0.075,-0.1,-0.129167,-0.160417,-0.177083,-0.204167,-0.216667,-0.239583,-0.260417,-0.28125,-0.291667,-0.308333,-0.314583,-0.329167,-0.345833,-0.35625,-0.358333,-0.360417,-0.360417,-0.360417,-0.360417,-0.360417,-0.360417,-0.360417,-0.358333,-0.358333,-0.358333,-0.358333,-0.352083,-0.341667,-0.333333,-0.316667,-0.29375,-0.28125,-0.254167,-0.222917,-0.189583,-0.175,-0.145833,-0.13125,-0.110417,-0.095833,-0.091667,-0.083333,-0.072917,-0.066667,-0.05625,-0.05,-0.047917,-0.045833,-0.047917,-0.05,-0.052083,-0.052083,-0.05,-0.047917,-0.04375,-0.041667,-0.03125,-0.022917]","[-0.008,-0.011111,-0.011111,-0.011111,-0.011111,-0.011111,-0.011111,-0.011111,-0.014222,-0.014222,-0.014222,-0.017333,-0.017333,-0.017333,-0.017333,-0.017333,-0.017333,-0.017333,-0.017333,-0.017333,-0.017333,-0.017333,-0.017333,-0.017333,-0.014222,-0.014222,-0.017333,-0.017333,-0.017333,-0.017333,-0.017333,-0.017333,-0.011111,-0.004889,0.016889,0.044889,0.079111,0.100889,0.147556,0.172444,0.228444,0.290667,0.359111,0.393333,0.461778,0.499111,0.576889,0.651556,0.726222,0.763556,0.828889,0.863111,0.919111,0.962667,0.978222,0.978222,0.975111,0.972,0.972,0.972,0.968889,0.968889,0.968889,0.972,0.972,0.972,0.972,0.962667,0.937778,0.922222,0.878667,0.828889,0.800889,0.735556,0.660889,0.586222,0.548889,0.483556,0.449333,0.387111,0.334222,0.309333,0.262667,0.222222,0.203556,0.169333,0.144444,0.135111,0.119556,0.107111,0.100889,0.088444,0.076,0.060444,0.057333,0.044889,0.038667,0.029333,0.02]","[0.0009,0.0266,0.0323,0.0497,0.0653,0.0823,0.0993,0.1156,0.1326,0.1492,0.1653,0.1822,0.1992,0.2158,0.2327,0.2492,0.265,0.2819,0.2991,0.3159,0.3338,0.3487,0.3658,0.382,0.3995,0.4154,0.4323,0.449,0.466,0.4829,0.4994,0.516,0.5327,0.5496,0.5655,0.5825,0.5994,0.6159,0.6327,0.6496,0.6655,0.6821,0.6988,0.7156,0.7323,0.749,0.7656,0.7823,0.799,0.8157,0.8326,0.8498,0.8656,0.8823,0.8992,0.9163,0.9329,0.9496,0.9661,0.9828,0.9995,1.0162,1.0329,1.0499,1.0666,1.0825,1.0991,1.1161,1.133,1.1498,1.1667,1.1834,1.1992,1.2159,1.2324,1.2503,1.2659,1.2826,1.2993,1.316,1.3322,1.35,1.3669,1.3827,1.3994,1.416,1.4327,1.4489,1.4672,1.4826,1.4992,1.5159,1.5326,1.5505,1.5659,1.5826,1.5992,1.6161,1.6325]","[1,1,1,1,1,1,1,1,1,1,1,1,1,1,1,1,1,1,1,1,1,1,1,1,1,1,1,1,1,1,1,1,1,1,1,1,1,1,1,1,1,1,1,1,1,1,1,1,1,1,1,1,2,2,2,2,2,2,2,2,2,2,2,2,2,2,2,2,2,2,2,2,2,2,2,2,2,2,2,2,2,2,2,2,2,2,2,2,2,2,2,2,2,2,2,2,2,2,2]",1,10.3156,4,0,0,0,0,1,236290,3,SV_6SxWlNLsoRj8nqK,304B,2022-07-15_13h24.30.164,implicit_time,2021.1.4,Linux x86_64,59.95563283
terminal,112.5,0,0,10,NA,0,NA,0,0,0.5,FALSE,practice,0,"[0,0,0,0,0,0,0,0,0,0,0,0,0,0,0,0,0,0,0,-0.002083,-0.004167,-0.00625,-0.014583,-0.020833,-0.0375,-0.064583,-0.1,-0.120833,-0.164583,-0.185417,-0.23125,-0.275,-0.314583,-0.333333,-0.366667,-0.383333,-0.414583,-0.44375,-0.454167,-0.454167,-0.454167,-0.454167,-0.452083,-0.452083,-0.452083,-0.452083,-0.454167,-0.454167,-0.454167,-0.447917,-0.429167,-0.41875,-0.395833,-0.372917,-0.360417,-0.335417,-0.308333,-0.29375,-0.26875,-0.241667,-0.229167,-0.202083,-0.177083,-0.1625,-0.1375,-0.1125,-0.1,-0.083333,-0.077083,-0.066667,-0.058333,-0.05,-0.045833,-0.039583,-0.035417]","[-0.008,-0.008,-0.008,-0.008,-0.008,-0.008,-0.008,-0.008,-0.008,-0.008,-0.008,-0.008,-0.008,-0.008,-0.008,-0.008,-0.008,-0.008,-0.008,-0.008,-0.001778,0.001333,0.023111,0.035556,0.072889,0.122667,0.184889,0.219111,0.293778,0.331111,0.412,0.502222,0.592444,0.642222,0.732444,0.776,0.853778,0.916,0.937778,0.937778,0.934667,0.934667,0.931556,0.931556,0.934667,0.934667,0.934667,0.934667,0.934667,0.928444,0.906667,0.894222,0.863111,0.828889,0.807111,0.754222,0.695111,0.660889,0.595556,0.524,0.489778,0.421333,0.352889,0.321778,0.262667,0.209778,0.181778,0.135111,0.116444,0.079111,0.051111,0.035556,0.026222,0.016889,0.013778]","[0.0006,0.0159,0.0325,0.0491,0.0657,0.0824,0.0991,0.1165,0.1326,0.1489,0.166,0.1826,0.1993,0.2156,0.2335,0.2495,0.2659,0.2836,0.2991,0.3162,0.3326,0.3496,0.366,0.3829,0.3994,0.4164,0.4328,0.4493,0.467,0.4829,0.4996,0.517,0.5327,0.5502,0.5664,0.5829,0.5996,0.6165,0.6333,0.6497,0.6662,0.6828,0.7002,0.717,0.734,0.7496,0.7668,0.7832,0.8,0.8168,0.8332,0.8507,0.8663,0.8836,0.9002,0.9171,0.9333,0.9496,0.9664,0.9842,1.0007,1.0168,1.0333,1.05,1.0671,1.0836,1.1001,1.1171,1.1337,1.1499,1.1672,1.1836,1.2,1.2171,1.2332]","[1,1,1,1,1,1,1,1,1,1,1,1,1,1,1,1,1,1,1,1,1,1,1,1,1,1,1,1,1,1,1,1,1,1,1,1,1,2,2,2,2,2,2,2,2,2,2,2,2,2,2,2,2,2,2,2,2,2,2,2,2,2,2,2,2,2,2,2,2,2,2,2,2,2,2]",1,12.0659,4,1,0,1,0,1,236290,3,SV_6SxWlNLsoRj8nqK,304B,2022-07-15_13h24.30.164,implicit_time,2021.1.4,Linux x86_64,59.95563283
terminal,45,0,0,10,NA,0,NA,0,1,0.5,FALSE,practice,1,"[-0.014583,-0.014583,-0.014583,-0.014583,-0.014583,-0.014583,-0.014583,-0.014583,-0.014583,-0.014583,-0.014583,-0.014583,-0.014583,-0.014583,-0.014583,-0.014583,-0.014583,-0.014583,-0.014583,-0.0125,-0.008333,-0.002083,0.016667,0.029167,0.0625,0.1,0.15,0.179167,0.247917,0.285417,0.366667,0.447917,0.491667,0.579167,0.670833,0.716667,0.795833,0.841667,0.852083,0.85,0.847917,0.847917,0.847917,0.845833,0.84375,0.841667,0.835417,0.829167,0.8125,0.791667,0.78125,0.754167,0.71875,0.7,0.654167,0.602083,0.572917,0.5125,0.447917,0.4125,0.34375,0.277083,0.245833,0.1875,0.133333,0.108333,0.066667,0.03125,0.016667,-0.00625,-0.022917,-0.027083,-0.0375,-0.04375,-0.045833,-0.047917,-0.047917,-0.047917,-0.05,-0.05,-0.05,-0.05,-0.052083,-0.052083,-0.052083,-0.052083,-0.05,-0.045833,-0.039583,-0.0375,-0.035417]","[0.004444,0.004444,0.004444,0.004444,0.004444,0.004444,0.004444,0.004444,0.004444,0.004444,0.004444,0.004444,0.004444,0.004444,0.004444,0.004444,0.004444,0.004444,0.004444,0.004444,0.004444,0.004444,0.016889,0.029333,0.054222,0.088444,0.132,0.156889,0.209778,0.237778,0.296889,0.359111,0.390222,0.449333,0.508444,0.539556,0.589333,0.620444,0.629778,0.629778,0.629778,0.629778,0.632889,0.636,0.639111,0.642222,0.642222,0.639111,0.626667,0.611111,0.601778,0.583111,0.555111,0.539556,0.505333,0.468,0.446222,0.402667,0.356,0.331111,0.284444,0.240889,0.222222,0.181778,0.147556,0.132,0.100889,0.079111,0.069778,0.057333,0.044889,0.041778,0.035556,0.032444,0.029333,0.026222,0.023111,0.02,0.013778,0.007556,0.007556,0.001333,-0.004889,-0.008,-0.008,-0.008,-0.011111,-0.014222,-0.017333,-0.020444,-0.020444]","[0.0005,0.0167,0.0331,0.0493,0.0655,0.0825,0.0989,0.1164,0.1325,0.1492,0.1662,0.1823,0.1992,0.2163,0.2326,0.2496,0.2657,0.2824,0.2997,0.3159,0.3329,0.3501,0.3662,0.3828,0.3996,0.4161,0.4327,0.4494,0.4664,0.483,0.5002,0.5165,0.5327,0.5499,0.5661,0.5839,0.5995,0.6168,0.633,0.6501,0.6662,0.6833,0.6996,0.7169,0.7329,0.7499,0.767,0.7831,0.8003,0.8162,0.8333,0.8502,0.8664,0.8836,0.8997,0.917,0.9335,0.9496,0.9666,0.9837,0.9997,1.017,1.0332,1.0503,1.0664,1.0835,1.1002,1.1172,1.1332,1.1504,1.1663,1.1835,1.2006,1.2167,1.2336,1.2497,1.2669,1.2833,1.3003,1.3171,1.3335,1.3507,1.3669,1.384,1.4002,1.4174,1.4334,1.45,1.4671,1.4842,1.5004]","[1,1,1,1,1,1,1,1,1,1,1,1,1,1,1,1,1,1,1,1,1,1,1,1,1,1,1,1,1,1,1,1,1,1,1,1,2,2,2,2,2,2,2,2,2,2,2,2,2,2,2,2,2,2,2,2,2,2,2,2,2,2,2,2,2,2,2,2,2,2,2,2,2,2,2,2,2,2,2,2,2,2,2,2,2,2,2,2,2,2,2]",2,14.0841,4,2,0,2,0,1,236290,3,SV_6SxWlNLsoRj8nqK,304B,2022-07-15_13h24.30.164,implicit_time,2021.1.4,Linux x86_64,59.95563283
terminal,52.5,0,0,10,NA,0,NA,0,0,0.5,FALSE,practice,0,"[-0.00625,-0.00625,-0.00625,-0.00625,-0.00625,-0.00625,-0.00625,-0.00625,-0.00625,-0.00625,-0.00625,-0.00625,-0.00625,-0.00625,-0.00625,-0.00625,-0.002083,0.002083,0.008333,0.010417,0.025,0.033333,0.0625,0.104167,0.154167,0.18125,0.2375,0.297917,0.33125,0.4,0.479167,0.51875,0.6,0.635417,0.675,0.677083,0.675,0.675,0.675,0.675,0.672917,0.66875,0.660417,0.654167,0.635417,0.622917,0.59375,0.558333,0.539583,0.5,0.454167,0.43125,0.379167,0.325,0.297917,0.25,0.210417,0.179167,0.166667,0.14375,0.133333,0.116667,0.104167,0.1,0.09375,0.089583,0.089583,0.0875,0.0875,0.0875,0.0875,0.0875,0.0875,0.085417,0.08125,0.070833,0.064583,0.05625,0.052083,0.047917,0.041667,0.0375,0.035417,0.029167]","[0.007556,0.007556,0.007556,0.007556,0.007556,0.007556,0.007556,0.007556,0.007556,0.007556,0.007556,0.007556,0.007556,0.007556,0.007556,0.007556,0.007556,0.010667,0.016889,0.02,0.035556,0.048,0.085333,0.128889,0.184889,0.216,0.281333,0.359111,0.399556,0.483556,0.570667,0.617333,0.704444,0.741778,0.785333,0.788444,0.788444,0.785333,0.788444,0.788444,0.791556,0.794667,0.794667,0.788444,0.769778,0.754222,0.72,0.676444,0.654667,0.604889,0.548889,0.520889,0.461778,0.399556,0.368444,0.309333,0.259556,0.219111,0.200444,0.172444,0.16,0.141333,0.125778,0.119556,0.110222,0.104,0.100889,0.100889,0.100889,0.100889,0.100889,0.097778,0.097778,0.094667,0.088444,0.072889,0.066667,0.054222,0.051111,0.044889,0.038667,0.032444,0.029333,0.023111]","[0.0003,0.0163,0.0327,0.0495,0.0667,0.0827,0.1001,0.1161,0.1331,0.1493,0.1666,0.1838,0.1993,0.2164,0.2335,0.2493,0.267,0.2832,0.2998,0.3162,0.333,0.3502,0.3664,0.3831,0.3995,0.4168,0.4329,0.4502,0.4664,0.4839,0.4999,0.5171,0.533,0.5497,0.5673,0.5833,0.6004,0.6165,0.6333,0.6502,0.6672,0.6833,0.7001,0.7165,0.7336,0.75,0.7673,0.7832,0.8002,0.8166,0.8331,0.85,0.8666,0.884,0.9001,0.9166,0.9337,0.9505,0.9666,0.9838,1.0006,1.0168,1.0332,1.0508,1.0669,1.0833,1.1001,1.1169,1.1335,1.1499,1.1668,1.1834,1.2001,1.2168,1.2337,1.2503,1.267,1.2837,1.3004,1.3169,1.3336,1.3502,1.367,1.3839]","[1,1,1,1,1,1,1,1,1,1,1,1,1,1,1,1,1,1,1,1,1,1,1,1,1,1,1,1,1,1,1,1,1,2,2,2,2,2,2,2,2,2,2,2,2,2,2,2,2,2,2,2,2,2,2,2,2,2,2,2,2,2,2,2,2,2,2,2,2,2,2,2,2,2,2,2,2,2,2,2,2,2,2,2]",2,15.9853,4,3,0,3,0,1,236290,3,SV_6SxWlNLsoRj8nqK,304B,2022-07-15_13h24.30.164,implicit_time,2021.1.4,Linux x86_64,59.95563283
terminal,75,0,0,10,NA,0,NA,0,1,0.5,FALSE,practice,1,"[0.00625,0.00625,0.00625,0.00625,0.00625,0.00625,0.00625,0.00625,0.00625,0.00625,0.00625,0.00625,0.00625,0.00625,0.00625,0.004167,0.004167,0.002083,0.004167,0.00625,0.0125,0.01875,0.052083,0.102083,0.13125,0.1875,0.235417,0.25625,0.295833,0.339583,0.360417,0.397917,0.43125,0.45,0.475,0.479167,0.470833,0.45,0.427083,0.416667,0.39375,0.366667,0.354167,0.333333,0.316667,0.308333,0.3,0.295833,0.295833,0.295833,0.297917,0.3,0.30625,0.314583,0.31875,0.325,0.327083,0.325,0.316667,0.295833,0.283333,0.254167,0.225,0.210417,0.179167,0.147917,0.133333,0.10625,0.08125,0.06875,0.047917,0.027083,0.01875,0.004167,-0.00625,-0.010417,-0.016667,-0.01875,-0.020833,-0.022917,-0.027083,-0.03125,-0.0375,-0.041667,-0.045833,-0.047917,-0.047917,-0.047917,-0.047917,-0.047917,-0.045833,-0.04375,-0.041667,-0.041667,-0.041667,-0.041667,-0.041667,-0.041667,-0.041667,-0.041667,-0.041667,-0.041667,-0.041667,-0.041667,-0.041667,-0.039583,-0.039583,-0.039583,-0.039583,-0.039583,-0.039583,-0.039583,-0.039583,-0.039583,-0.039583,-0.039583,-0.0375,-0.0375,-0.033333]","[-0.001778,-0.001778,-0.001778,-0.001778,-0.001778,-0.001778,-0.001778,-0.001778,-0.001778,-0.001778,-0.001778,-0.001778,-0.001778,-0.001778,-0.001778,-0.001778,-0.001778,0.001333,0.001333,0.010667,0.029333,0.044889,0.085333,0.144444,0.181778,0.256444,0.340444,0.387111,0.474222,0.564444,0.608,0.698222,0.782222,0.819556,0.881778,0.906667,0.909778,0.916,0.925333,0.931556,0.937778,0.950222,0.953333,0.962667,0.968889,0.972,0.975111,0.975111,0.975111,0.975111,0.975111,0.975111,0.965778,0.950222,0.937778,0.903556,0.856889,0.832,0.769778,0.704444,0.667111,0.598667,0.524,0.486667,0.415111,0.352889,0.321778,0.268889,0.225333,0.206667,0.172444,0.147556,0.138222,0.122667,0.110222,0.107111,0.097778,0.094667,0.085333,0.079111,0.069778,0.063556,0.051111,0.044889,0.029333,0.016889,0.007556,0.004444,-0.001778,-0.004889,-0.008,-0.011111,-0.014222,-0.014222,-0.014222,-0.014222,-0.014222,-0.014222,-0.014222,-0.014222,-0.014222,-0.014222,-0.014222,-0.014222,-0.017333,-0.017333,-0.017333,-0.017333,-0.020444,-0.020444,-0.020444,-0.020444,-0.020444,-0.020444,-0.020444,-0.020444,-0.020444,-0.020444,-0.020444]","[0.0002,0.0166,0.0328,0.0494,0.0662,0.0832,0.0998,0.1163,0.1331,0.15,0.1663,0.1831,0.2001,0.2165,0.2332,0.2499,0.2663,0.2831,0.3,0.3167,0.3329,0.3497,0.3664,0.3831,0.4003,0.417,0.4334,0.4503,0.467,0.4836,0.5003,0.5171,0.5336,0.5504,0.5671,0.5833,0.6005,0.6172,0.6336,0.6498,0.6668,0.6832,0.6999,0.7166,0.7333,0.7502,0.7668,0.7833,0.8003,0.8172,0.8333,0.8503,0.8667,0.8837,0.9002,0.9168,0.9334,0.9502,0.9668,0.9837,1.0003,1.0169,1.034,1.0506,1.0672,1.0839,1.1006,1.1168,1.1339,1.1503,1.167,1.1838,1.2005,1.2169,1.2335,1.2506,1.2674,1.2834,1.3003,1.317,1.3338,1.3504,1.3671,1.384,1.4008,1.417,1.4339,1.4505,1.467,1.4838,1.5006,1.5172,1.5339,1.5505,1.5671,1.5838,1.6008,1.6173,1.6339,1.6506,1.6674,1.6841,1.7008,1.7175,1.734,1.7508,1.7676,1.7841,1.8008,1.8175,1.8342,1.8511,1.8677,1.8842,1.9009,1.9179,1.9345,1.951,1.9677]","[1,1,1,1,1,1,1,1,1,1,1,1,1,1,1,1,1,1,1,1,1,1,1,1,1,1,1,1,1,1,1,1,1,1,2,2,2,2,2,2,2,2,2,2,2,2,2,2,2,2,2,2,2,2,2,2,2,2,2,2,2,2,2,2,2,2,2,2,2,2,2,2,2,2,2,2,2,2,2,2,2,2,2,2,2,2,2,2,2,2,2,2,2,2,2,2,2,2,2,2,2,2,2,2,2,2,2,2,2,2,2,2,2,2,2,2,2,2,2]",3,18.4705,4,4,0,4,0,1,236290,3,SV_6SxWlNLsoRj8nqK,304B,2022-07-15_13h24.30.164,implicit_time,2021.1.4,Linux x86_64,59.95563283
terminal,67.5,0,0,10,NA,0,NA,0,0,0.5,FALSE,practice,0,"[-0.008333,-0.008333,-0.008333,-0.008333,-0.008333,-0.008333,-0.008333,-0.008333,-0.008333,-0.008333,-0.008333,-0.008333,-0.008333,-0.008333,-0.008333,-0.008333,-0.008333,-0.008333,-0.008333,-0.008333,-0.008333,-0.008333,-0.004167,0.00625,0.014583,0.03125,0.052083,0.066667,0.095833,0.13125,0.16875,0.1875,0.227083,0.25,0.29375,0.339583,0.36875,0.372917,0.370833,0.36875,0.366667,0.3625,0.35625,0.352083,0.345833,0.34375,0.341667,0.333333,0.316667,0.30625,0.283333,0.270833,0.241667,0.208333,0.170833,0.15,0.110417,0.091667,0.058333,0.033333,0.0125,0.004167,-0.010417,-0.014583,-0.025,-0.03125,-0.033333,-0.035417,-0.0375,-0.039583,-0.039583,-0.039583,-0.041667,-0.041667,-0.041667,-0.041667,-0.039583,-0.0375,-0.035417,-0.033333,-0.03125,-0.029167,-0.025]","[-0.014222,-0.014222,-0.014222,-0.014222,-0.014222,-0.014222,-0.014222,-0.014222,-0.014222,-0.014222,-0.014222,-0.014222,-0.014222,-0.014222,-0.014222,-0.014222,-0.014222,-0.011111,-0.011111,-0.004889,0.007556,0.02,0.051111,0.091556,0.116444,0.172444,0.244,0.284444,0.374667,0.468,0.561333,0.608,0.695111,0.738667,0.819556,0.897333,0.940889,0.950222,0.947111,0.947111,0.947111,0.947111,0.950222,0.953333,0.956444,0.959556,0.953333,0.931556,0.888,0.86,0.804,0.772889,0.707556,0.632889,0.555111,0.514667,0.433778,0.393333,0.321778,0.259556,0.206667,0.184889,0.150667,0.135111,0.113333,0.097778,0.091556,0.082222,0.079111,0.079111,0.079111,0.076,0.076,0.076,0.076,0.072889,0.069778,0.066667,0.060444,0.051111,0.041778,0.035556,0.026222]","[0.0002,0.0164,0.0331,0.0493,0.0665,0.083,0.0997,0.1167,0.1332,0.1498,0.1663,0.1832,0.2,0.2168,0.2332,0.2496,0.2663,0.2834,0.3002,0.3169,0.3359,0.35,0.3668,0.3836,0.3998,0.417,0.4338,0.4504,0.4671,0.4833,0.5004,0.5169,0.5331,0.5498,0.5671,0.5838,0.5999,0.6172,0.634,0.6505,0.6672,0.6838,0.7006,0.7173,0.7339,0.75,0.7666,0.7842,0.7999,0.8166,0.8334,0.8498,0.8666,0.8842,0.9009,0.9167,0.9334,0.9501,0.9676,0.9834,1.0007,1.0167,1.0339,1.0504,1.0667,1.084,1.1001,1.1177,1.1335,1.1505,1.1669,1.1838,1.2003,1.217,1.2337,1.2502,1.2669,1.2836,1.3003,1.317,1.3337,1.3504,1.3673]","[1,1,1,1,1,1,1,1,1,1,1,1,1,1,1,1,1,1,1,1,1,1,1,1,1,1,1,1,1,1,1,1,1,1,1,2,2,2,2,2,2,2,2,2,2,2,2,2,2,2,2,2,2,2,2,2,2,2,2,2,2,2,2,2,2,2,2,2,2,2,2,2,2,2,2,2,2,2,2,2,2,2,2]",3,20.3554,4,5,0,5,0,1,236290,3,SV_6SxWlNLsoRj8nqK,304B,2022-07-15_13h24.30.164,implicit_time,2021.1.4,Linux x86_64,59.95563283
terminal,135,0,0,10,NA,0,NA,0,1,0.5,FALSE,practice,1,"[-0.010417,-0.010417,-0.010417,-0.010417,-0.010417,-0.010417,-0.010417,-0.010417,-0.010417,-0.010417,-0.010417,-0.010417,-0.010417,-0.010417,-0.010417,-0.010417,-0.010417,-0.010417,-0.0125,-0.016667,-0.027083,-0.033333,-0.052083,-0.070833,-0.095833,-0.110417,-0.14375,-0.1625,-0.20625,-0.25625,-0.310417,-0.339583,-0.397917,-0.427083,-0.48125,-0.53125,-0.583333,-0.608333,-0.660417,-0.689583,-0.745833,-0.7875,-0.802083,-0.8,-0.8,-0.797917,-0.797917,-0.797917,-0.797917,-0.797917,-0.795833,-0.79375,-0.775,-0.745833,-0.710417,-0.691667,-0.647917,-0.622917,-0.572917,-0.520833,-0.466667,-0.441667,-0.3875,-0.3625,-0.310417,-0.264583,-0.220833,-0.202083,-0.1625,-0.145833,-0.114583,-0.085417,-0.058333,-0.045833,-0.025,-0.01875,-0.00625,0.004167,0.0125,0.016667,0.022917]","[-0.001778,-0.001778,-0.001778,-0.001778,-0.001778,-0.001778,-0.001778,-0.001778,-0.001778,-0.001778,-0.001778,-0.001778,-0.001778,-0.001778,-0.001778,-0.001778,-0.001778,-0.001778,0.001333,0.001333,0.010667,0.013778,0.029333,0.048,0.079111,0.097778,0.141333,0.163111,0.216,0.265778,0.312444,0.334222,0.377778,0.402667,0.452444,0.505333,0.561333,0.589333,0.639111,0.664,0.701333,0.72,0.723111,0.72,0.72,0.716889,0.716889,0.716889,0.716889,0.72,0.723111,0.723111,0.716889,0.695111,0.660889,0.642222,0.601778,0.58,0.533333,0.489778,0.443111,0.424444,0.384,0.365333,0.331111,0.3,0.268889,0.256444,0.231556,0.219111,0.197333,0.178667,0.16,0.153778,0.135111,0.125778,0.104,0.079111,0.060444,0.048,0.029333]","[0.0003,0.0161,0.0331,0.0496,0.0665,0.0833,0.0999,0.1164,0.1333,0.1498,0.1665,0.1833,0.2,0.2166,0.233,0.2502,0.2668,0.2834,0.3001,0.3169,0.3337,0.3504,0.3665,0.3834,0.4004,0.4171,0.4339,0.4501,0.4666,0.4835,0.5004,0.5173,0.5339,0.55,0.5671,0.5841,0.6005,0.6172,0.6341,0.6507,0.6673,0.6838,0.7007,0.7169,0.7336,0.7507,0.7672,0.7836,0.8004,0.8172,0.8335,0.8507,0.867,0.8838,0.9007,0.917,0.9337,0.9503,0.9672,0.9837,1.0007,1.0173,1.0336,1.0507,1.0673,1.0837,1.1007,1.1172,1.134,1.1508,1.1673,1.1839,1.2008,1.2175,1.2341,1.2508,1.2676,1.2838,1.3009,1.3173,1.3344]","[1,1,1,1,1,1,1,1,1,1,1,1,1,1,1,1,1,1,1,1,1,1,1,1,1,1,1,1,1,1,1,1,1,1,1,1,1,1,1,1,2,2,2,2,2,2,2,2,2,2,2,2,2,2,2,2,2,2,2,2,2,2,2,2,2,2,2,2,2,2,2,2,2,2,2,2,2,2,2,2,2]",4,22.2068,4,6,0,6,0,1,236290,3,SV_6SxWlNLsoRj8nqK,304B,2022-07-15_13h24.30.164,implicit_time,2021.1.4,Linux x86_64,59.95563283
terminal,127.5,0,0,10,NA,0,NA,0,0,0.5,FALSE,practice,0,"[0.004167,0.004167,0.004167,0.004167,0.004167,0.004167,0.004167,0.004167,0.004167,0.004167,0.004167,0.004167,0.004167,0.004167,0.004167,0.002083,0.002083,0,0,-0.002083,-0.004167,-0.0125,-0.022917,-0.03125,-0.05,-0.072917,-0.0875,-0.116667,-0.154167,-0.19375,-0.214583,-0.25625,-0.277083,-0.31875,-0.364583,-0.3875,-0.427083,-0.460417,-0.477083,-0.508333,-0.5375,-0.552083,-0.579167,-0.589583,-0.589583,-0.5875,-0.5875,-0.5875,-0.5875,-0.5875,-0.5875,-0.585417,-0.579167,-0.570833,-0.54375,-0.5125,-0.49375,-0.45625,-0.414583,-0.39375,-0.347917,-0.304167,-0.283333,-0.241667,-0.20625,-0.189583,-0.160417,-0.139583,-0.13125,-0.116667,-0.104167,-0.1,-0.091667,-0.0875,-0.085417,-0.083333,-0.08125,-0.079167,-0.077083,-0.070833,-0.06875,-0.0625,-0.060417,-0.05625,-0.05,-0.04375,-0.041667,-0.035417,-0.033333,-0.029167,-0.027083,-0.025,-0.025]","[-0.008,-0.008,-0.008,-0.008,-0.008,-0.008,-0.008,-0.008,-0.008,-0.008,-0.008,-0.008,-0.008,-0.008,-0.008,-0.008,-0.004889,-0.004889,-0.004889,-0.001778,-0.001778,0.004444,0.013778,0.02,0.035556,0.063556,0.082222,0.128889,0.181778,0.240889,0.275111,0.337333,0.371556,0.436889,0.502222,0.536444,0.595556,0.657778,0.685778,0.741778,0.794667,0.816444,0.856889,0.875556,0.875556,0.872444,0.872444,0.872444,0.872444,0.872444,0.872444,0.872444,0.866222,0.856889,0.825778,0.782222,0.757333,0.707556,0.651556,0.623556,0.564444,0.502222,0.474222,0.415111,0.362222,0.337333,0.290667,0.253333,0.234667,0.206667,0.181778,0.172444,0.16,0.150667,0.147556,0.141333,0.138222,0.135111,0.132,0.132,0.132,0.125778,0.125778,0.119556,0.110222,0.097778,0.091556,0.079111,0.069778,0.057333,0.044889,0.035556,0.032444]","[0.0002,0.0169,0.0336,0.0501,0.0668,0.0835,0.1003,0.117,0.1334,0.1502,0.167,0.1837,0.2003,0.2171,0.2336,0.2504,0.2671,0.2835,0.3006,0.3172,0.3339,0.3505,0.3671,0.3835,0.4006,0.4172,0.4338,0.4505,0.4671,0.4838,0.5007,0.5174,0.5341,0.5508,0.5672,0.5839,0.6009,0.6174,0.6341,0.6508,0.6675,0.6843,0.7009,0.7175,0.7342,0.7505,0.7675,0.7841,0.8009,0.8177,0.8343,0.8505,0.8677,0.8845,0.9011,0.9178,0.9344,0.9506,0.9678,0.9847,1.0013,1.018,1.0346,1.0513,1.0677,1.0846,1.1013,1.1177,1.1343,1.1509,1.1675,1.1843,1.2009,1.2177,1.2343,1.2509,1.2677,1.2845,1.3011,1.3177,1.3344,1.3512,1.3678,1.3844,1.401,1.4177,1.4346,1.451,1.4679,1.4845,1.5012,1.5181,1.5347]","[1,1,1,1,1,1,1,1,1,1,1,1,1,1,1,1,1,1,1,1,1,1,1,1,1,1,1,1,1,1,1,1,1,1,1,1,1,1,1,1,2,2,2,2,2,2,2,2,2,2,2,2,2,2,2,2,2,2,2,2,2,2,2,2,2,2,2,2,2,2,2,2,2,2,2,2,2,2,2,2,2,2,2,2,2,2,2,2,2,2,2,2,2]",4,24.4749,4,7,0,7,0,1,236290,3,SV_6SxWlNLsoRj8nqK,304B,2022-07-15_13h24.30.164,implicit_time,2021.1.4,Linux x86_64,59.95563283
terminal,135,0,0,10,NA,0,NA,0,1,0.5,FALSE,practice,1,"[-0.0125,-0.0125,-0.0125,-0.0125,-0.0125,-0.0125,-0.0125,-0.0125,-0.0125,-0.0125,-0.0125,-0.0125,-0.0125,-0.0125,-0.0125,-0.0125,-0.0125,-0.0125,-0.014583,-0.020833,-0.027083,-0.045833,-0.05625,-0.079167,-0.110417,-0.145833,-0.16875,-0.21875,-0.245833,-0.304167,-0.364583,-0.427083,-0.45625,-0.508333,-0.533333,-0.58125,-0.629167,-0.677083,-0.702083,-0.745833,-0.766667,-0.795833,-0.804167,-0.802083,-0.802083,-0.802083,-0.8,-0.797917,-0.789583,-0.764583,-0.747917,-0.70625,-0.683333,-0.635417,-0.585417,-0.55625,-0.5,-0.439583,-0.379167,-0.35,-0.295833,-0.270833,-0.21875,-0.16875,-0.145833,-0.104167,-0.070833,-0.05625,-0.03125,-0.008333,0,0.016667,0.029167,0.035417,0.045833,0.054167,0.05625,0.0625,0.066667,0.06875,0.06875,0.06875,0.06875,0.066667,0.0625,0.058333,0.045833,0.033333,0.027083]","[-0.008,-0.008,-0.008,-0.008,-0.008,-0.008,-0.008,-0.008,-0.008,-0.008,-0.008,-0.008,-0.008,-0.008,-0.008,-0.008,-0.008,-0.008,-0.008,-0.001778,0.004444,0.023111,0.032444,0.060444,0.097778,0.144444,0.169333,0.228444,0.256444,0.312444,0.365333,0.415111,0.44,0.489778,0.517778,0.567556,0.611111,0.645333,0.660889,0.688889,0.704444,0.716889,0.716889,0.716889,0.716889,0.716889,0.716889,0.716889,0.723111,0.716889,0.710667,0.688889,0.673333,0.636,0.592444,0.570667,0.520889,0.471111,0.418222,0.393333,0.343556,0.321778,0.284444,0.247111,0.231556,0.197333,0.169333,0.156889,0.135111,0.113333,0.104,0.088444,0.069778,0.060444,0.044889,0.029333,0.023111,0.010667,-0.001778,-0.008,-0.017333,-0.023556,-0.026667,-0.026667,-0.029778,-0.029778,-0.029778,-0.029778,-0.026667]","[0.0002,0.0166,0.0325,0.0497,0.0661,0.0829,0.0996,0.1164,0.1327,0.1494,0.1661,0.1829,0.1994,0.2162,0.233,0.2499,0.2663,0.2828,0.2994,0.3167,0.3333,0.35,0.3666,0.3832,0.4,0.4166,0.4333,0.4501,0.4667,0.4841,0.5006,0.517,0.5335,0.5506,0.5668,0.5837,0.6002,0.6168,0.6336,0.6507,0.6671,0.6836,0.7004,0.717,0.7338,0.7505,0.7671,0.7837,0.8005,0.8171,0.8338,0.8504,0.8672,0.8838,0.9005,0.9172,0.934,0.9507,0.9673,0.9839,1.0003,1.0171,1.0339,1.0507,1.0674,1.0843,1.1005,1.1175,1.1344,1.1507,1.1675,1.1841,1.2008,1.2177,1.2346,1.2507,1.2674,1.2842,1.3008,1.3176,1.3342,1.3508,1.3676,1.3843,1.4018,1.4179,1.4347,1.4511,1.4677]","[1,1,1,1,1,1,1,1,1,1,1,1,1,1,1,1,1,1,1,1,1,1,1,1,1,1,1,1,1,1,1,1,1,1,1,1,1,1,2,2,2,2,2,2,2,2,2,2,2,2,2,2,2,2,2,2,2,2,2,2,2,2,2,2,2,2,2,2,2,2,2,2,2,2,2,2,2,2,2,2,2,2,2,2,2,2,2,2,2]",5,26.4605,4,8,0,8,0,1,236290,3,SV_6SxWlNLsoRj8nqK,304B,2022-07-15_13h24.30.164,implicit_time,2021.1.4,Linux x86_64,59.95563283
terminal,142.5,0,0,10,NA,0,NA,0,0,0.5,FALSE,practice,0,"[-0.0125,-0.0125,-0.0125,-0.0125,-0.0125,-0.0125,-0.0125,-0.0125,-0.0125,-0.0125,-0.0125,-0.0125,-0.0125,-0.0125,-0.0125,-0.0125,-0.0125,-0.0125,-0.014583,-0.020833,-0.029167,-0.047917,-0.058333,-0.0875,-0.122917,-0.172917,-0.202083,-0.275,-0.314583,-0.404167,-0.495833,-0.583333,-0.625,-0.708333,-0.747917,-0.825,-0.889583,-0.914583,-0.914583,-0.910417,-0.910417,-0.908333,-0.908333,-0.908333,-0.908333,-0.897917,-0.8875,-0.852083,-0.802083,-0.745833,-0.716667,-0.65625,-0.589583,-0.55625,-0.491667,-0.427083,-0.395833,-0.335417,-0.277083,-0.25,-0.2,-0.154167,-0.133333,-0.095833,-0.06875,-0.058333,-0.04375,-0.035417,-0.03125,-0.027083,-0.025,-0.025,-0.022917,-0.022917,-0.025,-0.025,-0.022917,-0.022917,-0.022917,-0.020833,-0.01875,-0.016667,-0.0125,-0.010417]","[-0.004889,-0.008,-0.008,-0.008,-0.008,-0.008,-0.004889,-0.004889,-0.004889,-0.004889,-0.008,-0.008,-0.008,-0.008,-0.008,-0.008,-0.008,-0.008,-0.004889,-0.004889,-0.001778,0.007556,0.013778,0.035556,0.069778,0.116444,0.144444,0.203556,0.234667,0.3,0.368444,0.433778,0.464889,0.517778,0.542667,0.58,0.604889,0.611111,0.608,0.604889,0.604889,0.604889,0.604889,0.604889,0.604889,0.608,0.604889,0.589333,0.561333,0.524,0.505333,0.461778,0.421333,0.399556,0.359111,0.318667,0.296889,0.262667,0.228444,0.212889,0.184889,0.16,0.150667,0.135111,0.122667,0.116444,0.110222,0.104,0.100889,0.097778,0.094667,0.094667,0.091556,0.091556,0.091556,0.091556,0.091556,0.091556,0.085333,0.082222,0.069778,0.057333,0.044889,0.038667]","[0.0003,0.0162,0.0322,0.0493,0.0656,0.0827,0.0995,0.1156,0.1323,0.1494,0.1663,0.1822,0.1993,0.2161,0.2327,0.2494,0.2656,0.2827,0.2996,0.3162,0.3329,0.3499,0.3664,0.383,0.4,0.4164,0.4333,0.4496,0.4665,0.4832,0.4996,0.5168,0.5334,0.5501,0.5668,0.5834,0.5999,0.6168,0.6335,0.6513,0.6668,0.6834,0.6999,0.7169,0.7335,0.7502,0.7668,0.7836,0.8004,0.8172,0.8339,0.8501,0.867,0.8836,0.9003,0.9169,0.9336,0.9503,0.967,0.9835,1.0002,1.0171,1.0339,1.0504,1.0674,1.0836,1.1003,1.1172,1.1339,1.1506,1.1675,1.1841,1.2008,1.217,1.2339,1.2507,1.267,1.2839,1.3007,1.3173,1.3338,1.3516,1.3674,1.3842]","[1,1,1,1,1,1,1,1,1,1,1,1,1,1,1,1,1,1,1,1,1,1,1,1,1,1,1,1,1,1,1,1,1,1,1,2,2,2,2,2,2,2,2,2,2,2,2,2,2,2,2,2,2,2,2,2,2,2,2,2,2,2,2,2,2,2,2,2,2,2,2,2,2,2,2,2,2,2,2,2,2,2,2,2]",5,28.3625,4,9,0,9,0,1,236290,3,SV_6SxWlNLsoRj8nqK,304B,2022-07-15_13h24.30.164,implicit_time,2021.1.4,Linux x86_64,59.95563283
terminal,75,0,0,10,NA,0,NA,0,1,0.5,FALSE,practice,1,"[0.002083,0.002083,0.002083,0.002083,0.002083,0.002083,0.002083,0.002083,0.002083,0.002083,0.002083,0.002083,0,-0.002083,-0.008333,-0.01875,-0.027083,-0.03125,-0.041667,-0.045833,-0.054167,-0.0625,-0.064583,-0.064583,-0.05625,-0.052083,-0.0375,-0.014583,0.020833,0.041667,0.091667,0.114583,0.160417,0.197917,0.208333,0.216667,0.21875,0.21875,0.21875,0.21875,0.21875,0.21875,0.216667,0.216667,0.216667,0.214583,0.214583,0.208333,0.202083,0.197917,0.1875,0.175,0.166667,0.14375,0.11875,0.10625,0.083333,0.0625,0.052083,0.03125,0.014583,0.00625,-0.008333,-0.022917,-0.029167,-0.041667,-0.05,-0.054167,-0.060417,-0.066667,-0.06875,-0.070833,-0.072917,-0.072917,-0.072917,-0.072917,-0.072917,-0.072917,-0.072917,-0.072917,-0.072917,-0.072917,-0.070833,-0.066667,-0.060417,-0.058333,-0.052083,-0.045833,-0.04375,-0.035417]","[0.010667,0.010667,0.010667,0.010667,0.010667,0.010667,0.010667,0.010667,0.010667,0.010667,0.010667,0.010667,0.013778,0.02,0.029333,0.041778,0.054222,0.063556,0.082222,0.094667,0.125778,0.163111,0.216,0.247111,0.318667,0.359111,0.449333,0.548889,0.654667,0.704444,0.800889,0.844444,0.922222,0.978222,0.990667,0.993778,0.990667,0.990667,0.990667,0.990667,0.990667,0.990667,0.993778,0.993778,0.987556,0.968889,0.956444,0.922222,0.881778,0.856889,0.807111,0.751111,0.72,0.654667,0.586222,0.548889,0.477333,0.405778,0.371556,0.306222,0.244,0.216,0.16,0.113333,0.088444,0.051111,0.02,0.004444,-0.020444,-0.042222,-0.048444,-0.060889,-0.067111,-0.070222,-0.070222,-0.070222,-0.070222,-0.070222,-0.070222,-0.070222,-0.070222,-0.070222,-0.070222,-0.067111,-0.064,-0.060889,-0.051556,-0.042222,-0.036,-0.020444]","[0.0007,0.0163,0.0333,0.0501,0.0662,0.0832,0.1003,0.1159,0.1336,0.15,0.1664,0.1833,0.2008,0.2166,0.2334,0.2507,0.2665,0.2843,0.2999,0.3169,0.3335,0.3502,0.3669,0.3837,0.4003,0.417,0.4337,0.4503,0.467,0.4838,0.5001,0.517,0.5337,0.5504,0.567,0.5837,0.6005,0.6171,0.6338,0.6504,0.6671,0.6838,0.7005,0.7172,0.7337,0.7505,0.7685,0.7842,0.8008,0.8171,0.834,0.8509,0.8679,0.8842,0.9043,0.9179,0.9346,0.9516,0.9677,0.9843,1.0006,1.0176,1.0343,1.0509,1.0675,1.0841,1.1009,1.1178,1.1344,1.1511,1.1677,1.1845,1.2009,1.2175,1.2345,1.2511,1.2675,1.2841,1.3008,1.3175,1.3344,1.351,1.3678,1.3845,1.401,1.4179,1.4352,1.4514,1.4679,1.4845]","[1,1,1,1,1,1,1,1,1,1,1,1,1,1,1,1,1,1,1,1,1,1,1,1,1,1,1,1,1,1,1,1,1,2,2,2,2,2,2,2,2,2,2,2,2,2,2,2,2,2,2,2,2,2,2,2,2,2,2,2,2,2,2,2,2,2,2,2,2,2,2,2,2,2,2,2,2,2,2,2,2,2,2,2,2,2,2,2,2,2]",6,30.3637,4,10,0,10,0,1,236290,3,SV_6SxWlNLsoRj8nqK,304B,2022-07-15_13h24.30.164,implicit_time,2021.1.4,Linux x86_64,59.95563283
terminal,67.5,0,0,10,NA,0,NA,0,0,0.5,FALSE,practice,0,"[-0.014583,-0.014583,-0.014583,-0.014583,-0.014583,-0.014583,-0.014583,-0.014583,-0.014583,-0.014583,-0.014583,-0.014583,-0.014583,-0.014583,-0.014583,-0.014583,-0.014583,-0.014583,-0.014583,-0.0125,-0.00625,0.002083,0.010417,0.03125,0.05625,0.070833,0.1,0.135417,0.154167,0.195833,0.21875,0.260417,0.304167,0.352083,0.379167,0.433333,0.460417,0.497917,0.50625,0.50625,0.50625,0.50625,0.50625,0.50625,0.50625,0.504167,0.49375,0.475,0.4625,0.435417,0.40625,0.389583,0.35,0.304167,0.25625,0.23125,0.183333,0.1625,0.120833,0.0875,0.05625,0.041667,0.01875]","[0.010667,0.010667,0.010667,0.010667,0.010667,0.010667,0.010667,0.010667,0.010667,0.010667,0.010667,0.010667,0.010667,0.010667,0.010667,0.010667,0.010667,0.010667,0.010667,0.013778,0.023111,0.044889,0.060444,0.097778,0.147556,0.175556,0.240889,0.315556,0.356,0.443111,0.486667,0.570667,0.648444,0.723111,0.760444,0.825778,0.856889,0.894222,0.900444,0.897333,0.897333,0.897333,0.897333,0.897333,0.897333,0.891111,0.869333,0.828889,0.804,0.748,0.685778,0.654667,0.589333,0.517778,0.44,0.402667,0.324889,0.287556,0.219111,0.153778,0.097778,0.072889,0.026222]","[0.0006,0.019,0.0334,0.0495,0.0662,0.0829,0.0997,0.1161,0.1329,0.1491,0.1663,0.1831,0.1988,0.2164,0.233,0.2499,0.2664,0.2829,0.3,0.3167,0.3326,0.3495,0.3669,0.3829,0.4002,0.4166,0.4327,0.4497,0.4661,0.483,0.4998,0.5162,0.5331,0.5497,0.5663,0.5831,0.5998,0.6165,0.6331,0.6495,0.6664,0.6832,0.7001,0.7165,0.7331,0.7498,0.7665,0.7833,0.8,0.8166,0.8333,0.85,0.8668,0.8832,0.9,0.9169,0.9335,0.9504,0.9669,0.9834,1.0003,1.0169,1.0336]","[1,1,1,1,1,1,1,1,1,1,1,1,1,1,1,1,1,1,1,1,1,1,1,1,1,1,1,1,1,1,1,1,1,1,1,1,2,2,2,2,2,2,2,2,2,2,2,2,2,2,2,2,2,2,2,2,2,2,2,2,2,2,2]",6,31.9147,4,11,0,11,0,1,236290,3,SV_6SxWlNLsoRj8nqK,304B,2022-07-15_13h24.30.164,implicit_time,2021.1.4,Linux x86_64,59.95563283
terminal,45,0,0,10,NA,0,NA,0,1,0.5,FALSE,practice,1,"[0.020833,0.020833,0.020833,0.020833,0.020833,0.020833,0.020833,0.020833,0.020833,0.020833,0.020833,0.020833,0.020833,0.020833,0.020833,0.020833,0.020833,0.020833,0.022917,0.027083,0.03125,0.041667,0.045833,0.060417,0.079167,0.10625,0.125,0.175,0.24375,0.279167,0.358333,0.435417,0.477083,0.560417,0.645833,0.685417,0.758333,0.804167,0.8125,0.8125,0.814583,0.814583,0.814583,0.816667,0.816667,0.816667,0.8125,0.808333,0.7875,0.75625,0.7375,0.695833,0.647917,0.622917,0.566667,0.50625,0.472917,0.40625,0.341667,0.310417,0.254167,0.202083,0.177083,0.133333,0.095833,0.08125,0.052083,0.03125,0.022917,0.010417,0.004167]","[0.001333,0.001333,0.001333,0.001333,0.001333,0.001333,0.001333,0.001333,0.001333,0.001333,0.001333,0.001333,0.001333,0.001333,0.001333,0.001333,0.001333,0.001333,0.001333,0.001333,0.004444,0.013778,0.023111,0.041778,0.072889,0.116444,0.141333,0.200444,0.265778,0.3,0.371556,0.436889,0.468,0.530222,0.586222,0.608,0.651556,0.676444,0.679556,0.676444,0.676444,0.676444,0.676444,0.676444,0.676444,0.676444,0.676444,0.673333,0.660889,0.639111,0.626667,0.598667,0.567556,0.548889,0.511556,0.468,0.443111,0.393333,0.343556,0.318667,0.268889,0.225333,0.203556,0.166222,0.132,0.116444,0.091556,0.069778,0.063556,0.048,0.038667]","[0.0006,0.0166,0.0329,0.0501,0.0664,0.0829,0.0996,0.1163,0.133,0.1503,0.1662,0.183,0.1997,0.2164,0.233,0.2502,0.2669,0.2832,0.2999,0.3167,0.3337,0.3503,0.3666,0.3835,0.3999,0.4168,0.4332,0.4498,0.4669,0.4838,0.5,0.5169,0.5335,0.5502,0.5666,0.5833,0.6001,0.6175,0.6338,0.6503,0.6667,0.6834,0.7001,0.7167,0.7337,0.7502,0.7669,0.7831,0.8,0.8169,0.8335,0.8503,0.8669,0.8835,0.9006,0.9164,0.9334,0.9508,0.9665,0.984,0.9999,1.0173,1.0334,1.0502,1.0667,1.0835,1.1002,1.1169,1.1336,1.1503,1.1669]","[1,1,1,1,1,1,1,1,1,1,1,1,1,1,1,1,1,1,1,1,1,1,1,1,1,1,1,1,1,1,1,1,1,1,1,1,2,2,2,2,2,2,2,2,2,2,2,2,2,2,2,2,2,2,2,2,2,2,2,2,2,2,2,2,2,2,2,2,2,2,2]",7,33.7655,4,12,0,12,0,1,236290,3,SV_6SxWlNLsoRj8nqK,304B,2022-07-15_13h24.30.164,implicit_time,2021.1.4,Linux x86_64,59.95563283
terminal,37.5,0,0,10,NA,0,NA,0,0,0.5,FALSE,practice,0,"[-0.008333,-0.008333,-0.008333,-0.008333,-0.008333,-0.008333,-0.008333,-0.008333,-0.008333,-0.008333,-0.008333,-0.00625,-0.00625,-0.004167,-0.002083,0,0.004167,0.0125,0.016667,0.033333,0.041667,0.06875,0.10625,0.154167,0.18125,0.239583,0.270833,0.339583,0.408333,0.48125,0.520833,0.60625,0.65,0.7375,0.81875,0.8625,0.86875,0.866667,0.866667,0.86875,0.86875,0.8625,0.845833,0.833333,0.820833,0.795833,0.76875,0.741667,0.722917,0.6875,0.666667,0.627083,0.579167,0.554167,0.495833,0.4375,0.38125,0.35625,0.30625,0.283333,0.239583,0.204167,0.172917,0.160417,0.1375,0.127083,0.110417,0.097917,0.091667,0.0875,0.079167,0.075,0.06875,0.064583,0.0625,0.060417,0.05625,0.054167,0.05,0.047917,0.045833,0.045833,0.04375,0.04375,0.041667,0.0375,0.033333,0.03125,0.027083,0.022917]","[-0.008,-0.008,-0.008,-0.008,-0.008,-0.008,-0.008,-0.008,-0.008,-0.008,-0.008,-0.004889,-0.004889,-0.001778,-0.001778,0.001333,0.004444,0.010667,0.016889,0.029333,0.038667,0.060444,0.088444,0.122667,0.144444,0.188,0.212889,0.262667,0.315556,0.371556,0.399556,0.458667,0.489778,0.548889,0.598667,0.623556,0.626667,0.623556,0.623556,0.623556,0.623556,0.620444,0.611111,0.604889,0.598667,0.58,0.561333,0.539556,0.527111,0.502222,0.486667,0.452444,0.415111,0.393333,0.349778,0.303111,0.256444,0.234667,0.191111,0.172444,0.135111,0.100889,0.072889,0.057333,0.035556,0.026222,0.010667,-0.001778,-0.011111,-0.014222,-0.023556,-0.026667,-0.036,-0.042222,-0.042222,-0.045333,-0.048444,-0.048444,-0.051556,-0.051556,-0.051556,-0.048444,-0.048444,-0.048444,-0.045333,-0.042222,-0.039111,-0.039111,-0.036,-0.032889]","[0.0008,0.0163,0.0336,0.0502,0.0666,0.0832,0.1001,0.1166,0.1333,0.15,0.1666,0.1835,0.2001,0.2165,0.2334,0.2503,0.2665,0.2834,0.3002,0.3167,0.3336,0.3502,0.367,0.3837,0.4006,0.4173,0.4338,0.4507,0.467,0.484,0.5004,0.5173,0.5343,0.5507,0.5672,0.5841,0.6007,0.6177,0.6349,0.65,0.6679,0.6882,0.7061,0.7174,0.7342,0.7505,0.7676,0.7839,0.8004,0.817,0.834,0.8509,0.8678,0.8839,0.9004,0.9175,0.9343,0.951,0.9676,0.9837,1.0008,1.0174,1.034,1.0504,1.0672,1.084,1.1006,1.1174,1.134,1.1507,1.1673,1.184,1.2003,1.217,1.234,1.2507,1.2675,1.2838,1.3009,1.3191,1.3341,1.3513,1.3675,1.3841,1.4009,1.4174,1.4348,1.4507,1.4683,1.484]","[1,1,1,1,1,1,1,1,1,1,1,1,1,1,1,1,1,1,1,1,1,1,1,1,1,1,1,1,1,1,1,1,1,1,2,2,2,2,2,2,2,2,2,2,2,2,2,2,2,2,2,2,2,2,2,2,2,2,2,2,2,2,2,2,2,2,2,2,2,2,2,2,2,2,2,2,2,2,2,2,2,2,2,2,2,2,2,2,2,2]",7,35.7671,4,13,0,13,0,1,236290,3,SV_6SxWlNLsoRj8nqK,304B,2022-07-15_13h24.30.164,implicit_time,2021.1.4,Linux x86_64,59.95563283
terminal,105,0,0,10,NA,0,NA,0,1,0.5,FALSE,practice,1,"[-0.002083,-0.002083,-0.002083,-0.002083,-0.002083,-0.002083,-0.002083,-0.002083,-0.002083,-0.002083,-0.002083,-0.002083,-0.002083,-0.002083,-0.004167,-0.004167,-0.004167,-0.00625,-0.00625,-0.00625,-0.00625,-0.00625,-0.00625,-0.00625,-0.00625,-0.008333,-0.010417,-0.016667,-0.029167,-0.035417,-0.05625,-0.079167,-0.089583,-0.1125,-0.133333,-0.14375,-0.1625,-0.18125,-0.191667,-0.2125,-0.233333,-0.24375,-0.264583,-0.28125,-0.2875,-0.297917,-0.302083,-0.304167,-0.304167,-0.304167,-0.304167,-0.304167,-0.304167,-0.302083,-0.297917,-0.291667,-0.2875,-0.275,-0.25625,-0.245833,-0.220833,-0.197917,-0.1875,-0.166667,-0.147917,-0.139583,-0.120833,-0.10625,-0.097917,-0.085417,-0.079167,-0.066667,-0.058333,-0.052083,-0.05,-0.045833,-0.045833,-0.04375,-0.041667,-0.041667,-0.039583,-0.0375,-0.035417,-0.033333,-0.029167,-0.022917]","[-0.004889,-0.004889,-0.004889,-0.004889,-0.004889,-0.004889,-0.004889,-0.004889,-0.004889,-0.004889,-0.004889,-0.004889,-0.004889,-0.001778,0.001333,0.007556,0.010667,0.010667,0.013778,0.013778,0.013778,0.013778,0.013778,0.016889,0.023111,0.035556,0.048,0.072889,0.113333,0.135111,0.191111,0.253333,0.284444,0.356,0.433778,0.474222,0.552,0.626667,0.664,0.729333,0.785333,0.810222,0.853778,0.891111,0.906667,0.931556,0.956444,0.965778,0.981333,0.987556,0.987556,0.987556,0.984444,0.984444,0.968889,0.944,0.928444,0.884889,0.832,0.800889,0.735556,0.664,0.623556,0.545778,0.464889,0.427556,0.352889,0.284444,0.253333,0.197333,0.172444,0.132,0.104,0.082222,0.076,0.063556,0.060444,0.054222,0.051111,0.051111,0.048,0.044889,0.041778,0.038667,0.032444,0.023111]","[0.0008,0.0162,0.0327,0.0494,0.0661,0.0829,0.0996,0.1163,0.1333,0.1494,0.1661,0.183,0.2002,0.2169,0.2335,0.25,0.2666,0.2834,0.3002,0.3167,0.3331,0.3501,0.3668,0.3836,0.4003,0.4169,0.4336,0.4503,0.4671,0.4837,0.5012,0.517,0.5336,0.5504,0.5671,0.5839,0.6004,0.6171,0.6337,0.6504,0.6669,0.6839,0.7007,0.7168,0.7338,0.7507,0.7675,0.7837,0.8006,0.8172,0.834,0.8509,0.8676,0.8838,0.9008,0.9176,0.9343,0.9511,0.9676,0.9844,1.0006,1.0173,1.034,1.051,1.068,1.0839,1.1005,1.1176,1.134,1.1508,1.1672,1.1839,1.2006,1.2174,1.2342,1.2507,1.2674,1.2841,1.3008,1.3176,1.3341,1.3509,1.3674,1.3844,1.4009,1.4175]","[1,1,1,1,1,1,1,1,1,1,1,1,1,1,1,1,1,1,1,1,1,1,1,1,1,1,1,1,1,1,1,1,1,1,1,1,1,1,1,1,1,1,1,1,1,2,2,2,2,2,2,2,2,2,2,2,2,2,2,2,2,2,2,2,2,2,2,2,2,2,2,2,2,2,2,2,2,2,2,2,2,2,2,2,2,2]",8,37.702,4,14,0,14,0,1,236290,3,SV_6SxWlNLsoRj8nqK,304B,2022-07-15_13h24.30.164,implicit_time,2021.1.4,Linux x86_64,59.95563283
terminal,112.5,0,0,10,NA,0,NA,0,0,0.5,FALSE,practice,0,"[-0.002083,-0.002083,-0.002083,-0.002083,-0.002083,-0.002083,-0.002083,-0.002083,-0.002083,-0.002083,-0.002083,-0.002083,-0.002083,-0.002083,-0.002083,-0.002083,-0.002083,-0.002083,-0.004167,-0.00625,-0.010417,-0.01875,-0.029167,-0.035417,-0.052083,-0.070833,-0.083333,-0.108333,-0.139583,-0.154167,-0.1875,-0.222917,-0.241667,-0.277083,-0.3125,-0.33125,-0.366667,-0.389583,-0.395833,-0.397917,-0.4,-0.402083,-0.402083,-0.402083,-0.402083,-0.402083,-0.397917,-0.391667,-0.366667,-0.3375,-0.30625,-0.289583,-0.258333,-0.241667,-0.208333,-0.177083,-0.1625,-0.13125,-0.102083,-0.089583,-0.066667,-0.04375,-0.025,-0.016667,-0.004167,0,0.00625,0.010417,0.0125,0.0125,0.014583,0.014583,0.014583,0.014583,0.014583,0.014583,0.014583,0.014583,0.016667,0.01875]","[-0.011111,-0.011111,-0.011111,-0.011111,-0.011111,-0.011111,-0.011111,-0.011111,-0.011111,-0.011111,-0.011111,-0.011111,-0.011111,-0.011111,-0.011111,-0.011111,-0.011111,-0.011111,-0.011111,-0.004889,0.001333,0.016889,0.038667,0.054222,0.088444,0.132,0.16,0.225333,0.303111,0.343556,0.430667,0.517778,0.564444,0.660889,0.757333,0.807111,0.894222,0.947111,0.956444,0.956444,0.950222,0.950222,0.950222,0.950222,0.950222,0.953333,0.944,0.934667,0.891111,0.832,0.766667,0.732444,0.664,0.626667,0.558222,0.489778,0.458667,0.396444,0.337333,0.309333,0.253333,0.206667,0.166222,0.147556,0.119556,0.107111,0.085333,0.066667,0.057333,0.054222,0.048,0.048,0.048,0.048,0.044889,0.044889,0.044889,0.041778,0.038667,0.032444]","[0.0005,0.0168,0.0329,0.0496,0.0668,0.0829,0.0996,0.1163,0.1337,0.1497,0.1668,0.183,0.1998,0.2163,0.2332,0.2502,0.2669,0.2835,0.3004,0.3171,0.3337,0.3503,0.3671,0.3837,0.4023,0.4169,0.4337,0.4502,0.4671,0.4836,0.5006,0.5169,0.5339,0.5504,0.5674,0.5839,0.6006,0.6173,0.6342,0.6507,0.6673,0.684,0.7005,0.717,0.734,0.7509,0.7676,0.784,0.8007,0.8176,0.8343,0.8526,0.8677,0.8839,0.901,0.9175,0.934,0.9518,0.968,0.9844,1.0006,1.0173,1.0344,1.0507,1.0677,1.0846,1.1013,1.1179,1.1344,1.1507,1.1679,1.1848,1.2008,1.2178,1.2346,1.2512,1.2679,1.2848,1.3016,1.3182]","[1,1,1,1,1,1,1,1,1,1,1,1,1,1,1,1,1,1,1,1,1,1,1,1,1,1,1,1,1,1,1,1,1,1,1,1,2,2,2,2,2,2,2,2,2,2,2,2,2,2,2,2,2,2,2,2,2,2,2,2,2,2,2,2,2,2,2,2,2,2,2,2,2,2,2,2,2,2,2,2]",8,39.5373,4,15,0,15,0,1,236290,3,SV_6SxWlNLsoRj8nqK,304B,2022-07-15_13h24.30.164,implicit_time,2021.1.4,Linux x86_64,59.95563283
terminal,135,0,0,10,NA,0,NA,0,3,0.5,FALSE,practice,1,"[0.0125,0.0125,0.0125,0.0125,0.0125,0.0125,0.0125,0.0125,0.0125,0.0125,0.0125,0.0125,0.0125,0.0125,0.010417,0.008333,0.00625,0.004167,0.002083,0,-0.004167,-0.00625,-0.020833,-0.039583,-0.054167,-0.089583,-0.135417,-0.164583,-0.227083,-0.29375,-0.325,-0.3875,-0.445833,-0.472917,-0.529167,-0.585417,-0.6125,-0.6625,-0.704167,-0.714583,-0.720833,-0.720833,-0.720833,-0.720833,-0.720833,-0.720833,-0.720833,-0.7125,-0.704167,-0.675,-0.6375,-0.61875,-0.579167,-0.5375,-0.516667,-0.470833,-0.447917,-0.402083,-0.354167,-0.30625,-0.283333,-0.235417,-0.210417,-0.164583,-0.122917,-0.08125,-0.0625,-0.029167,-0.014583]","[-0.001778,-0.001778,-0.001778,-0.001778,-0.001778,-0.001778,-0.001778,-0.001778,-0.001778,-0.001778,-0.001778,-0.001778,-0.001778,-0.001778,0.001333,0.004444,0.010667,0.013778,0.023111,0.032444,0.048,0.057333,0.082222,0.113333,0.132,0.175556,0.225333,0.253333,0.309333,0.365333,0.396444,0.458667,0.524,0.558222,0.626667,0.685778,0.710667,0.754222,0.785333,0.794667,0.794667,0.791556,0.788444,0.788444,0.788444,0.788444,0.788444,0.782222,0.776,0.748,0.710667,0.685778,0.636,0.583111,0.552,0.492889,0.464889,0.405778,0.346667,0.293778,0.265778,0.216,0.191111,0.147556,0.110222,0.076,0.060444,0.035556,0.026222]","[0.0007,0.0153,0.0317,0.0486,0.0644,0.0814,0.0977,0.1145,0.1313,0.1478,0.1651,0.1817,0.1987,0.2153,0.2317,0.2485,0.2653,0.2819,0.2986,0.3153,0.3318,0.3485,0.3653,0.3821,0.3987,0.4154,0.4318,0.449,0.466,0.4823,0.4989,0.5156,0.5323,0.5487,0.5656,0.582,0.599,0.6156,0.6342,0.6492,0.6655,0.6823,0.6987,0.7155,0.7322,0.7487,0.7654,0.7823,0.7987,0.8157,0.8325,0.849,0.8658,0.8824,0.8992,0.9158,0.9323,0.949,0.966,0.9895,0.9995,1.0164,1.033,1.0494,1.0662,1.0827,1.0995,1.1163,1.1326]","[1,1,1,1,1,1,1,1,1,1,1,1,1,1,1,1,1,1,1,1,1,1,1,1,1,1,1,1,1,1,1,1,1,1,1,1,1,2,2,2,2,2,2,2,2,2,2,2,2,2,2,2,2,2,2,2,2,2,2,2,2,2,2,2,2,2,2,2,2]",9,41.1883,4,16,0,16,0,1,236290,3,SV_6SxWlNLsoRj8nqK,304B,2022-07-15_13h24.30.164,implicit_time,2021.1.4,Linux x86_64,59.95563283
terminal,142.5,0,0,10,NA,0,NA,0,0,0.5,FALSE,practice,0,"[0,0,0,0,0,0,0,0,0,0,0,0,0,0,0,0,0,-0.002083,-0.004167,-0.0125,-0.027083,-0.052083,-0.066667,-0.1,-0.120833,-0.1625,-0.214583,-0.277083,-0.308333,-0.377083,-0.4125,-0.485417,-0.560417,-0.635417,-0.672917,-0.745833,-0.783333,-0.852083,-0.910417,-0.935417,-0.935417,-0.933333,-0.933333,-0.93125,-0.93125,-0.93125,-0.929167,-0.920833,-0.908333,-0.872917,-0.827083,-0.775,-0.747917,-0.69375,-0.664583,-0.602083,-0.5125,-0.5125,-0.454167,-0.397917,-0.34375,-0.316667,-0.266667,-0.24375,-0.2,-0.1625,-0.127083,-0.110417,-0.08125,-0.070833,-0.05,-0.029167]","[0.010667,0.010667,0.010667,0.010667,0.010667,0.010667,0.010667,0.010667,0.010667,0.010667,0.010667,0.010667,0.010667,0.010667,0.010667,0.010667,0.010667,0.013778,0.013778,0.016889,0.023111,0.029333,0.032444,0.048,0.057333,0.085333,0.119556,0.156889,0.178667,0.225333,0.250222,0.3,0.352889,0.405778,0.430667,0.474222,0.496,0.533333,0.564444,0.58,0.58,0.576889,0.576889,0.576889,0.576889,0.576889,0.576889,0.58,0.576889,0.561333,0.533333,0.502222,0.483556,0.446222,0.427556,0.387111,0.324889,0.324889,0.284444,0.244,0.206667,0.188,0.153778,0.138222,0.113333,0.088444,0.069778,0.060444,0.048,0.041778,0.029333,0.02]","[0.0007,0.0172,0.0333,0.0497,0.0665,0.0832,0.0997,0.1163,0.1334,0.1497,0.1664,0.1834,0.1997,0.2163,0.2333,0.2509,0.2672,0.2841,0.3006,0.3171,0.3342,0.3506,0.3679,0.3868,0.4012,0.4177,0.4344,0.4511,0.4678,0.4845,0.5009,0.5177,0.5347,0.5513,0.5678,0.5848,0.6013,0.6178,0.6347,0.6513,0.668,0.6844,0.7013,0.7177,0.735,0.7511,0.7676,0.7851,0.8016,0.8183,0.8353,0.8517,0.8698,0.8851,0.9019,0.9192,0.9431,0.952,0.9695,0.9871,1.0038,1.02,1.0365,1.0534,1.0694,1.0864,1.1035,1.1202,1.1367,1.1575,1.1728,1.1966]","[1,1,1,1,1,1,1,1,1,1,1,1,1,1,1,1,1,1,1,1,1,1,1,1,1,1,1,1,1,1,1,1,1,1,1,1,1,2,2,2,2,2,2,2,2,2,2,2,2,2,2,2,2,2,2,2,2,2,2,2,2,2,2,2,2,2,2,2,2,2,2,2]",9,43.5358,4,17,0,17,0,1,236290,3,SV_6SxWlNLsoRj8nqK,304B,2022-07-15_13h24.30.164,implicit_time,2021.1.4,Linux x86_64,59.95563283
terminal,75,0,0,10,NA,0,NA,0,3,0.5,FALSE,practice,1,"[-0.010417,-0.010417,-0.010417,-0.010417,-0.010417,-0.010417,-0.010417,-0.010417,-0.010417,-0.010417,-0.010417,-0.010417,-0.010417,-0.010417,-0.010417,-0.010417,-0.010417,-0.010417,-0.010417,-0.010417,-0.0125,-0.0125,-0.014583,-0.016667,-0.016667,-0.016667,-0.0125,-0.008333,0.016667,0.027083,0.039583,0.060417,0.08125,0.091667,0.114583,0.1375,0.15,0.175,0.197917,0.20625,0.20625,0.202083,0.2,0.19375,0.185417,0.18125,0.172917,0.166667,0.164583,0.160417,0.154167,0.15,0.139583,0.129167,0.122917,0.10625,0.0875,0.077083,0.054167,0.025,0.008333,-0.022917,-0.05,-0.0625,-0.085417,-0.10625,-0.11875,-0.135417,-0.15,-0.154167,-0.164583,-0.175,-0.179167,-0.185417,-0.191667,-0.19375,-0.2,-0.208333,-0.2125,-0.220833,-0.227083,-0.23125,-0.2375,-0.245833,-0.25,-0.260417,-0.266667,-0.275,-0.277083,-0.283333,-0.2875,-0.289583,-0.291667,-0.29375,-0.29375,-0.29375,-0.29375,-0.29375,-0.29375,-0.29375,-0.29375,-0.29375,-0.29375,-0.29375,-0.29375,-0.291667,-0.291667,-0.291667,-0.291667,-0.289583,-0.2875,-0.279167,-0.270833,-0.2625,-0.258333,-0.25,-0.247917,-0.241667,-0.235417,-0.229167,-0.227083,-0.222917,-0.21875,-0.214583,-0.208333,-0.204167,-0.202083,-0.2,-0.2,-0.197917,-0.195833,-0.189583,-0.1875,-0.177083,-0.164583,-0.15625,-0.141667,-0.127083,-0.11875,-0.10625,-0.102083,-0.09375,-0.0875,-0.079167,-0.075,-0.066667,-0.060417,-0.058333,-0.054167,-0.05,-0.045833,-0.039583,-0.033333,-0.03125,-0.027083,-0.022917,-0.022917]","[-0.004889,-0.004889,-0.004889,-0.004889,-0.004889,-0.004889,-0.004889,-0.004889,-0.004889,-0.004889,-0.004889,-0.004889,-0.004889,-0.004889,-0.004889,-0.004889,-0.004889,-0.004889,-0.004889,-0.004889,0.001333,0.007556,0.023111,0.035556,0.072889,0.116444,0.169333,0.200444,0.303111,0.340444,0.380889,0.468,0.555111,0.598667,0.682667,0.769778,0.813333,0.894222,0.962667,0.993778,0.996889,0.996889,0.996889,0.996889,1,1,1.003111,1.003111,1.003111,0.990667,0.959556,0.937778,0.888,0.832,0.800889,0.735556,0.664,0.626667,0.548889,0.461778,0.418222,0.334222,0.253333,0.212889,0.144444,0.079111,0.048,-0.008,-0.054667,-0.073333,-0.107556,-0.132444,-0.144889,-0.160444,-0.176,-0.182222,-0.194667,-0.210222,-0.219556,-0.232,-0.244444,-0.253778,-0.269333,-0.284889,-0.291111,-0.306667,-0.316,-0.328444,-0.331556,-0.344,-0.347111,-0.353333,-0.356444,-0.356444,-0.356444,-0.356444,-0.356444,-0.356444,-0.356444,-0.356444,-0.356444,-0.356444,-0.356444,-0.356444,-0.356444,-0.356444,-0.356444,-0.353333,-0.353333,-0.347111,-0.344,-0.328444,-0.309778,-0.291111,-0.278667,-0.26,-0.250667,-0.232,-0.216444,-0.197778,-0.191556,-0.176,-0.169778,-0.157333,-0.144889,-0.135556,-0.132444,-0.126222,-0.12,-0.12,-0.116889,-0.113778,-0.110667,-0.110667,-0.104444,-0.104444,-0.098222,-0.092,-0.088889,-0.082667,-0.079556,-0.073333,-0.070222,-0.064,-0.060889,-0.057778,-0.054667,-0.054667,-0.054667,-0.051556,-0.051556,-0.045333,-0.042222,-0.042222,-0.039111,-0.036,-0.032889]","[0.0006,0.0164,0.0336,0.0496,0.0666,0.0835,0.0996,0.1161,0.133,0.1498,0.1662,0.1832,0.1997,0.2163,0.2333,0.2498,0.2665,0.2837,0.3003,0.3171,0.3342,0.3504,0.3671,0.3842,0.4003,0.4172,0.4342,0.4518,0.4755,0.4847,0.5007,0.5172,0.5342,0.5504,0.5672,0.5842,0.6006,0.6172,0.6342,0.6528,0.6676,0.6843,0.7007,0.7175,0.7343,0.7506,0.7676,0.7844,0.8007,0.8175,0.8344,0.8508,0.8675,0.8844,0.9007,0.9174,0.9344,0.9508,0.9677,0.9846,1.001,1.0177,1.0347,1.0511,1.0678,1.0847,1.1012,1.1181,1.1347,1.1512,1.1681,1.1848,1.2014,1.2179,1.2349,1.2513,1.2683,1.285,1.3016,1.3182,1.3351,1.3519,1.3682,1.3851,1.4021,1.4184,1.4357,1.4524,1.469,1.4877,1.5024,1.519,1.5357,1.5523,1.5689,1.5853,1.6014,1.6184,1.6352,1.6519,1.6682,1.6848,1.7015,1.7183,1.7353,1.7519,1.7692,1.7856,1.8026,1.8187,1.8361,1.8526,1.8692,1.8875,1.9042,1.9195,1.936,1.9524,1.9691,1.9861,2.0023,2.019,2.036,2.0523,2.0692,2.0862,2.1025,2.119,2.1362,2.1524,2.1693,2.1861,2.2024,2.2193,2.2364,2.2527,2.2695,2.2861,2.3027,2.3196,2.336,2.3528,2.3693,2.3864,2.4029,2.4194,2.4362,2.4545,2.4705,2.4865,2.5031,2.5201,2.5366,2.553,2.5695,2.5875,2.6038]","[1,1,1,1,1,1,1,1,1,1,1,1,1,1,1,1,1,1,1,1,1,1,1,1,1,1,1,1,1,1,1,1,1,1,1,1,1,1,2,2,2,2,2,2,2,2,2,2,2,2,2,2,2,2,2,2,2,2,2,2,2,2,2,2,2,2,2,2,2,2,2,2,2,2,2,2,2,2,2,2,2,2,2,2,2,2,2,2,2,2,2,2,2,2,2,2,2,2,2,2,2,2,2,2,2,2,2,2,2,2,2,2,2,2,2,2,2,2,2,2,2,2,2,2,2,2,2,2,2,2,2,2,2,2,2,2,2,2,2,2,2,2,2,2,2,2,2,2,2,2,2,2,2,2,2,2,2]",10,46.6452,4,18,0,18,0,1,236290,3,SV_6SxWlNLsoRj8nqK,304B,2022-07-15_13h24.30.164,implicit_time,2021.1.4,Linux x86_64,59.95563283
terminal,67.5,0,0,10,NA,0,NA,0,0,0.5,FALSE,practice,0,"[-0.002083,-0.002083,-0.002083,-0.002083,-0.002083,-0.002083,-0.002083,-0.002083,-0.002083,-0.002083,-0.002083,-0.002083,-0.002083,-0.002083,-0.002083,-0.002083,-0.002083,-0.002083,-0.002083,-0.002083,-0.002083,-0.002083,-0.002083,-0.002083,0,0.002083,0.004167,0.0125,0.016667,0.029167,0.05,0.077083,0.091667,0.122917,0.158333,0.177083,0.216667,0.25625,0.277083,0.316667,0.358333,0.38125,0.427083,0.452083,0.485417,0.495833,0.491667,0.4875,0.48125,0.477083,0.46875,0.458333,0.45,0.445833,0.433333,0.425,0.404167,0.379167,0.352083,0.3375,0.30625,0.2875,0.247917,0.20625,0.1625,0.141667,0.102083,0.085417,0.054167,0.03125,0.014583,0.008333,-0.004167,-0.008333,-0.014583,-0.01875,-0.020833,-0.020833,-0.020833,-0.020833,-0.020833]","[-0.004889,-0.004889,-0.004889,-0.004889,-0.004889,-0.004889,-0.004889,-0.004889,-0.004889,-0.004889,-0.004889,-0.004889,-0.004889,-0.004889,-0.004889,-0.004889,-0.004889,-0.004889,-0.004889,-0.004889,-0.004889,-0.004889,-0.004889,-0.001778,0.001333,0.010667,0.016889,0.032444,0.044889,0.076,0.113333,0.156889,0.178667,0.228444,0.287556,0.318667,0.387111,0.464889,0.505333,0.586222,0.667111,0.707556,0.788444,0.828889,0.884889,0.903556,0.903556,0.903556,0.906667,0.909778,0.912889,0.919111,0.922222,0.922222,0.906667,0.891111,0.853778,0.807111,0.754222,0.726222,0.670222,0.639111,0.576889,0.508444,0.433778,0.399556,0.334222,0.303111,0.247111,0.197333,0.156889,0.138222,0.110222,0.100889,0.079111,0.063556,0.051111,0.044889,0.038667,0.038667,0.035556]","[0.0007,0.0209,0.0308,0.0564,0.0701,0.0801,0.0962,0.1101,0.1302,0.1469,0.1635,0.18,0.1966,0.2134,0.2301,0.2466,0.2628,0.2795,0.2966,0.3132,0.3303,0.3468,0.3633,0.3803,0.3968,0.4134,0.4303,0.4469,0.4636,0.4811,0.4974,0.5141,0.531,0.5476,0.5644,0.581,0.5976,0.6142,0.6311,0.6478,0.6644,0.6813,0.6979,0.7144,0.7312,0.748,0.7646,0.7821,0.7981,0.8161,0.8326,0.8484,0.865,0.8818,0.8982,0.9148,0.9319,0.9483,0.9648,0.9815,0.9982,1.0147,1.0317,1.0482,1.065,1.0816,1.0982,1.1149,1.1313,1.1481,1.1646,1.1812,1.1977,1.2144,1.2313,1.2478,1.2644,1.2816,1.298,1.3146,1.3315]","[1,1,1,1,1,1,1,1,1,1,1,1,1,1,1,1,1,1,1,1,1,1,1,1,1,1,1,1,1,1,1,1,1,1,1,1,1,1,1,1,1,1,1,1,2,2,2,2,2,2,2,2,2,2,2,2,2,2,2,2,2,2,2,2,2,2,2,2,2,2,2,2,2,2,2,2,2,2,2,2,2]",10,48.4969,4,19,0,19,0,1,236290,3,SV_6SxWlNLsoRj8nqK,304B,2022-07-15_13h24.30.164,implicit_time,2021.1.4,Linux x86_64,59.95563283
terminal,105,0,0,10,NA,0,NA,0,3,0.5,FALSE,practice,1,"[0,0,0,0,0,0,0,0,0,0,0,0,0,0,0,0,0,0,0,0,0,-0.002083,-0.004167,-0.010417,-0.020833,-0.027083,-0.04375,-0.064583,-0.075,-0.095833,-0.120833,-0.133333,-0.158333,-0.179167,-0.1875,-0.204167,-0.220833,-0.229167,-0.241667,-0.25,-0.252083,-0.252083,-0.254167,-0.25625,-0.260417,-0.2625,-0.264583,-0.266667,-0.26875,-0.266667,-0.258333,-0.24375,-0.225,-0.216667,-0.197917,-0.1875,-0.16875,-0.152083,-0.133333,-0.125,-0.110417,-0.102083,-0.0875,-0.072917,-0.060417,-0.05625,-0.05,-0.045833,-0.035417,-0.029167,-0.025,-0.01875]","[-0.017333,-0.017333,-0.017333,-0.017333,-0.017333,-0.017333,-0.017333,-0.017333,-0.017333,-0.017333,-0.017333,-0.017333,-0.017333,-0.017333,-0.017333,-0.017333,-0.017333,-0.017333,-0.017333,-0.017333,-0.017333,-0.008,-0.004889,0.013778,0.044889,0.063556,0.113333,0.172444,0.206667,0.281333,0.362222,0.405778,0.492889,0.586222,0.632889,0.729333,0.819556,0.863111,0.940889,0.987556,0.993778,0.993778,0.990667,0.990667,0.987556,0.987556,0.987556,0.987556,0.987556,0.984444,0.965778,0.928444,0.881778,0.856889,0.804,0.776,0.716889,0.654667,0.589333,0.555111,0.486667,0.452444,0.387111,0.321778,0.259556,0.231556,0.178667,0.156889,0.113333,0.076,0.060444,0.032444]","[0.0007,0.0166,0.0332,0.0494,0.0664,0.0835,0.0996,0.1166,0.1329,0.1493,0.1663,0.1834,0.1999,0.2162,0.2326,0.2494,0.2662,0.2831,0.2996,0.3167,0.3336,0.35,0.3667,0.3838,0.4001,0.4168,0.4338,0.4501,0.4668,0.4837,0.5005,0.517,0.5337,0.5502,0.567,0.5838,0.6003,0.6174,0.6339,0.6531,0.6694,0.684,0.7006,0.7174,0.7344,0.7506,0.7673,0.7843,0.8008,0.8173,0.8343,0.8509,0.8675,0.8845,0.9008,0.9175,0.9344,0.951,0.9678,0.9845,1.0008,1.0176,1.0343,1.0509,1.0676,1.0846,1.1013,1.1176,1.1345,1.1511,1.1679,1.1847]","[1,1,1,1,1,1,1,1,1,1,1,1,1,1,1,1,1,1,1,1,1,1,1,1,1,1,1,1,1,1,1,1,1,1,1,1,1,1,2,2,2,2,2,2,2,2,2,2,2,2,2,2,2,2,2,2,2,2,2,2,2,2,2,2,2,2,2,2,2,2,2,2]",11,50.1988,4,20,0,20,0,1,236290,3,SV_6SxWlNLsoRj8nqK,304B,2022-07-15_13h24.30.164,implicit_time,2021.1.4,Linux x86_64,59.95563283
terminal,112.5,0,0,10,NA,0,NA,0,0,0.5,FALSE,practice,0,"[0.002083,0.002083,0.002083,0.002083,0.002083,0.002083,0.002083,0.002083,0.002083,0.002083,0.002083,0.002083,0.002083,0.002083,0.002083,0.002083,0.002083,0,-0.002083,-0.008333,-0.016667,-0.020833,-0.033333,-0.047917,-0.05625,-0.079167,-0.110417,-0.125,-0.1625,-0.204167,-0.227083,-0.275,-0.320833,-0.339583,-0.377083,-0.4125,-0.427083,-0.458333,-0.479167,-0.483333,-0.483333,-0.483333,-0.485417,-0.485417,-0.485417,-0.4875,-0.485417,-0.472917,-0.460417,-0.429167,-0.397917,-0.38125,-0.352083,-0.31875,-0.3,-0.264583,-0.23125,-0.214583,-0.183333,-0.152083,-0.139583,-0.114583,-0.09375,-0.083333,-0.066667,-0.052083,-0.045833,-0.0375,-0.035417,-0.03125,-0.027083,-0.027083,-0.025,-0.025,-0.025,-0.025,-0.025,-0.025,-0.025,-0.020833,-0.020833,-0.01875,-0.01875,-0.016667,-0.014583]","[0.001333,0.001333,0.004444,0.004444,0.004444,0.004444,0.004444,0.004444,0.004444,0.004444,0.004444,0.004444,0.004444,0.004444,0.004444,0.004444,0.004444,0.004444,0.007556,0.013778,0.026222,0.035556,0.063556,0.100889,0.122667,0.172444,0.231556,0.262667,0.334222,0.408889,0.449333,0.524,0.604889,0.645333,0.723111,0.794667,0.828889,0.888,0.922222,0.925333,0.925333,0.922222,0.922222,0.922222,0.922222,0.922222,0.919111,0.903556,0.884889,0.841333,0.785333,0.757333,0.695111,0.629778,0.595556,0.533333,0.471111,0.443111,0.384,0.328,0.3,0.253333,0.209778,0.191111,0.156889,0.128889,0.116444,0.094667,0.088444,0.076,0.066667,0.063556,0.063556,0.063556,0.063556,0.063556,0.063556,0.060444,0.060444,0.057333,0.054222,0.051111,0.048,0.038667,0.032444]","[0.0006,0.0172,0.0332,0.0497,0.0663,0.0823,0.0989,0.1165,0.1324,0.1497,0.1659,0.1824,0.1996,0.2164,0.2326,0.2494,0.2666,0.2832,0.3,0.3168,0.3333,0.3497,0.3666,0.3838,0.4005,0.4174,0.434,0.4503,0.4674,0.4851,0.5007,0.5176,0.534,0.5506,0.5676,0.5842,0.6009,0.6179,0.6343,0.6532,0.6679,0.6839,0.7009,0.7178,0.7338,0.7505,0.768,0.7844,0.801,0.8179,0.8345,0.8512,0.8679,0.8843,0.9011,0.9179,0.9347,0.9514,0.9683,0.9844,1.0013,1.0175,1.034,1.0507,1.069,1.0849,1.1011,1.1177,1.1342,1.151,1.1678,1.1842,1.2012,1.2178,1.2341,1.251,1.2677,1.2843,1.301,1.318,1.3343,1.3511,1.3679,1.3847,1.4014]","[1,1,1,1,1,1,1,1,1,1,1,1,1,1,1,1,1,1,1,1,1,1,1,1,1,1,1,1,1,1,1,1,1,1,1,1,1,2,2,2,2,2,2,2,2,2,2,2,2,2,2,2,2,2,2,2,2,2,2,2,2,2,2,2,2,2,2,2,2,2,2,2,2,2,2,2,2,2,2,2,2,2,2,2,2]",11,52.8353,4,21,0,21,0,1,236290,3,SV_6SxWlNLsoRj8nqK,304B,2022-07-15_13h24.30.164,implicit_time,2021.1.4,Linux x86_64,59.95563283
terminal,45,0,0,10,NA,0,NA,0,3,0.5,FALSE,practice,1,"[0.00625,0.00625,0.00625,0.00625,0.00625,0.00625,0.004167,0.004167,0.004167,0.004167,0.004167,0.004167,0.004167,0.004167,0.004167,0.004167,0.004167,0.00625,0.008333,0.01875,0.029167,0.05,0.077083,0.104167,0.120833,0.160417,0.183333,0.23125,0.2875,0.345833,0.375,0.439583,0.472917,0.547917,0.627083,0.702083,0.729167,0.75,0.747917,0.739583,0.735417,0.73125,0.729167,0.725,0.722917,0.722917,0.714583,0.695833,0.68125,0.647917,0.629167,0.585417,0.539583,0.489583,0.464583,0.410417,0.383333,0.329167,0.277083,0.227083,0.202083,0.15625,0.114583,0.077083,0.060417,0.03125]","[-0.020444,-0.020444,-0.020444,-0.020444,-0.020444,-0.020444,-0.020444,-0.020444,-0.020444,-0.020444,-0.020444,-0.020444,-0.020444,-0.020444,-0.020444,-0.020444,-0.020444,-0.020444,-0.017333,-0.008,-0.001778,0.016889,0.041778,0.076,0.094667,0.144444,0.172444,0.234667,0.296889,0.365333,0.399556,0.468,0.502222,0.567556,0.632889,0.698222,0.723111,0.751111,0.751111,0.754222,0.754222,0.757333,0.757333,0.760444,0.763556,0.763556,0.757333,0.735556,0.723111,0.685778,0.664,0.617333,0.567556,0.511556,0.483556,0.427556,0.399556,0.340444,0.284444,0.228444,0.200444,0.153778,0.107111,0.069778,0.051111,0.023111]","[0.0003,0.0224,0.0389,0.0558,0.0719,0.0886,0.1059,0.1221,0.1389,0.1583,0.1725,0.1836,0.2,0.217,0.2333,0.25,0.2668,0.2835,0.3004,0.317,0.3338,0.3503,0.3669,0.3836,0.4005,0.4171,0.4339,0.4506,0.4671,0.4837,0.5004,0.5172,0.534,0.5506,0.5671,0.5838,0.6007,0.6178,0.634,0.6506,0.6672,0.6841,0.701,0.7176,0.7342,0.7506,0.7675,0.7843,0.801,0.8176,0.8341,0.8508,0.8676,0.8844,0.9011,0.9178,0.9344,0.9509,0.9675,0.9844,1.0011,1.0217,1.0415,1.0589,1.0759,1.0918]","[1,1,1,1,1,1,1,1,1,1,1,1,1,1,1,1,1,1,1,1,1,1,1,1,1,1,1,1,1,1,1,1,1,1,1,2,2,2,2,2,2,2,2,2,2,2,2,2,2,2,2,2,2,2,2,2,2,2,2,2,2,2,2,2,2,2]",12,54.4386,4,22,0,22,0,1,236290,3,SV_6SxWlNLsoRj8nqK,304B,2022-07-15_13h24.30.164,implicit_time,2021.1.4,Linux x86_64,59.95563283
terminal,37.5,0,0,10,NA,0,NA,0,0,0.5,FALSE,practice,0,"[0.0125,0.010417,0.008333,0.008333,0.008333,0.008333,0.008333,0.008333,0.008333,0.008333,0.008333,0.008333,0.00625,0.00625,0.00625,0.00625,0.00625,0.00625,0.00625,0.00625,0.008333,0.0125,0.029167,0.054167,0.06875,0.102083,0.14375,0.16875,0.222917,0.283333,0.314583,0.38125,0.454167,0.491667,0.570833,0.65,0.689583,0.770833,0.822917,0.83125,0.833333,0.833333,0.835417,0.8375,0.839583,0.839583,0.839583,0.83125,0.820833,0.791667,0.754167,0.735417,0.691667,0.64375,0.616667,0.558333,0.495833,0.4625,0.395833,0.329167,0.297917,0.2375,0.18125,0.158333,0.114583,0.079167,0.066667,0.04375,0.029167,0.025,0.01875,0.016667,0.016667,0.016667,0.016667,0.01875,0.020833,0.022917,0.022917,0.022917,0.020833,0.020833,0.016667,0.0125]","[0.007556,0.007556,0.004444,0.004444,0.004444,0.004444,0.004444,0.004444,0.004444,0.004444,0.004444,0.004444,0.004444,0.001333,0.001333,0.001333,0.001333,0.001333,0.001333,0.001333,0.004444,0.007556,0.02,0.038667,0.054222,0.085333,0.125778,0.150667,0.200444,0.256444,0.284444,0.346667,0.412,0.446222,0.505333,0.561333,0.586222,0.629778,0.654667,0.657778,0.654667,0.651556,0.648444,0.648444,0.648444,0.648444,0.648444,0.645333,0.639111,0.623556,0.601778,0.589333,0.564444,0.533333,0.514667,0.477333,0.433778,0.408889,0.362222,0.312444,0.287556,0.240889,0.197333,0.178667,0.141333,0.113333,0.100889,0.082222,0.069778,0.066667,0.060444,0.057333,0.057333,0.057333,0.057333,0.057333,0.054222,0.054222,0.054222,0.051111,0.048,0.044889,0.038667,0.032444]","[0.0001,0.0168,0.0333,0.0504,0.0666,0.0833,0.1001,0.1168,0.1335,0.1501,0.1668,0.1835,0.2002,0.217,0.2338,0.2504,0.2668,0.2835,0.3004,0.3169,0.3338,0.3503,0.3673,0.3838,0.4004,0.4171,0.434,0.4504,0.4671,0.4839,0.5006,0.5173,0.5341,0.5508,0.5673,0.5839,0.6007,0.6175,0.6342,0.6509,0.6675,0.6841,0.7009,0.7177,0.7342,0.7508,0.7675,0.7843,0.801,0.8177,0.8344,0.8509,0.8678,0.8839,0.9012,0.918,0.9346,0.9512,0.9679,0.9847,1.0013,1.018,1.0344,1.0512,1.0678,1.0846,1.1014,1.1182,1.1347,1.1512,1.168,1.1847,1.2014,1.2181,1.2347,1.2514,1.2681,1.2848,1.3015,1.3174,1.3347,1.3515,1.3682,1.385]","[1,1,1,1,1,1,1,1,1,1,1,1,1,1,1,1,1,1,1,1,1,1,1,1,1,1,1,1,1,1,1,1,1,1,1,1,1,2,2,2,2,2,2,2,2,2,2,2,2,2,2,2,2,2,2,2,2,2,2,2,2,2,2,2,2,2,2,2,2,2,2,2,2,2,2,2,2,2,2,2,2,2,2,2]",12,56.9662,4,23,0,23,0,1,236290,3,SV_6SxWlNLsoRj8nqK,304B,2022-07-15_13h24.30.164,implicit_time,2021.1.4,Linux x86_64,59.95563283
terminal,45,0,0,10,NA,0,NA,0,3,0.5,FALSE,practice,1,"[0.004167,0.004167,0.004167,0.004167,0.004167,0.004167,0.004167,0.004167,0.004167,0.004167,0.004167,0.004167,0.004167,0.004167,0.004167,0.002083,0.002083,0.002083,0.002083,0.008333,0.014583,0.029167,0.054167,0.089583,0.114583,0.16875,0.197917,0.258333,0.325,0.39375,0.429167,0.5,0.5375,0.614583,0.69375,0.764583,0.785417,0.8,0.8,0.797917,0.797917,0.8,0.8,0.797917,0.795833,0.785417,0.764583,0.735417,0.720833,0.6875,0.66875,0.629167,0.58125,0.55625,0.5,0.441667,0.4125,0.35625,0.3,0.272917,0.222917,0.179167,0.141667,0.122917,0.095833,0.083333,0.0625,0.047917,0.03125]","[-0.014222,-0.014222,-0.014222,-0.014222,-0.014222,-0.014222,-0.014222,-0.014222,-0.014222,-0.014222,-0.014222,-0.014222,-0.014222,-0.014222,-0.014222,-0.014222,-0.011111,-0.011111,-0.008,-0.001778,0.004444,0.02,0.044889,0.079111,0.100889,0.147556,0.172444,0.225333,0.284444,0.346667,0.380889,0.452444,0.489778,0.558222,0.620444,0.670222,0.682667,0.692,0.688889,0.688889,0.688889,0.688889,0.688889,0.692,0.695111,0.688889,0.673333,0.648444,0.632889,0.601778,0.583111,0.545778,0.502222,0.480444,0.433778,0.384,0.362222,0.312444,0.262667,0.240889,0.197333,0.156889,0.122667,0.107111,0.082222,0.069778,0.051111,0.035556,0.02]","[0.0002,0.0165,0.0333,0.0501,0.0667,0.0832,0.0998,0.1166,0.1333,0.15,0.1665,0.1834,0.2001,0.2167,0.2334,0.2504,0.267,0.2836,0.3003,0.3168,0.3337,0.3504,0.367,0.3838,0.4003,0.417,0.4337,0.4504,0.4673,0.4839,0.5004,0.5171,0.534,0.5506,0.5673,0.584,0.6007,0.6173,0.6342,0.651,0.6675,0.6841,0.7015,0.7175,0.7341,0.7508,0.7677,0.7843,0.8008,0.8174,0.8342,0.851,0.8677,0.8843,0.901,0.9176,0.9344,0.9511,0.9678,0.9843,1.001,1.0182,1.0346,1.0514,1.0681,1.0845,1.1011,1.1181,1.1347]","[1,1,1,1,1,1,1,1,1,1,1,1,1,1,1,1,1,1,1,1,1,1,1,1,1,1,1,1,1,1,1,1,1,1,1,2,2,2,2,2,2,2,2,2,2,2,2,2,2,2,2,2,2,2,2,2,2,2,2,2,2,2,2,2,2,2,2,2,2]",13,58.6174,4,24,0,24,0,1,236290,3,SV_6SxWlNLsoRj8nqK,304B,2022-07-15_13h24.30.164,implicit_time,2021.1.4,Linux x86_64,59.95563283
terminal,37.5,0,0,10,NA,0,NA,0,0,0.5,FALSE,practice,0,"[0.027083,0.027083,0.027083,0.027083,0.027083,0.025,0.025,0.020833,0.01875,0.016667,0.014583,0.0125,0.0125,0.0125,0.0125,0.0125,0.0125,0.0125,0.0125,0.0125,0.014583,0.016667,0.029167,0.045833,0.058333,0.0875,0.127083,0.15,0.202083,0.2625,0.295833,0.366667,0.441667,0.48125,0.558333,0.635417,0.672917,0.754167,0.833333,0.870833,0.9125,0.916667,0.916667,0.916667,0.916667,0.916667,0.91875,0.914583,0.910417,0.889583,0.85625,0.835417,0.785417,0.727083,0.695833,0.629167,0.595833,0.527083,0.460417,0.39375,0.360417,0.3,0.272917,0.220833,0.177083,0.139583,0.125,0.1,0.091667,0.08125,0.075,0.072917,0.072917,0.072917,0.072917,0.072917,0.072917,0.072917,0.072917,0.075,0.072917,0.070833,0.0625,0.054167,0.047917,0.0375]","[0.016889,0.016889,0.016889,0.016889,0.016889,0.013778,0.013778,0.010667,0.007556,0.007556,0.004444,0.004444,0.004444,0.004444,0.004444,0.004444,0.004444,0.004444,0.004444,0.004444,0.004444,0.007556,0.016889,0.032444,0.041778,0.066667,0.094667,0.110222,0.147556,0.188,0.212889,0.256444,0.3,0.324889,0.368444,0.408889,0.430667,0.474222,0.517778,0.536444,0.558222,0.561333,0.561333,0.561333,0.561333,0.561333,0.561333,0.561333,0.561333,0.548889,0.530222,0.517778,0.492889,0.458667,0.44,0.399556,0.377778,0.337333,0.290667,0.250222,0.228444,0.188,0.169333,0.135111,0.107111,0.082222,0.069778,0.054222,0.048,0.038667,0.035556,0.032444,0.032444,0.032444,0.032444,0.032444,0.032444,0.032444,0.035556,0.032444,0.032444,0.029333,0.02,0.013778,0.007556,0.001333]","[0.0006,0.0167,0.0334,0.0501,0.0668,0.0839,0.1,0.1168,0.1335,0.1501,0.1668,0.1836,0.2003,0.2168,0.2335,0.2501,0.267,0.2839,0.3002,0.3169,0.3338,0.3503,0.367,0.384,0.4005,0.4172,0.434,0.451,0.4673,0.4841,0.5008,0.5173,0.5341,0.5508,0.5675,0.5842,0.6008,0.6175,0.6342,0.651,0.6677,0.6844,0.701,0.7174,0.7342,0.751,0.7676,0.7845,0.8009,0.8176,0.8344,0.8512,0.8678,0.8842,0.9009,0.9181,0.9346,0.9513,0.968,0.9845,1.0012,1.0179,1.0346,1.0514,1.068,1.0847,1.1012,1.1179,1.1348,1.1514,1.1682,1.1847,1.2012,1.2181,1.2348,1.2516,1.2683,1.2847,1.3014,1.3183,1.335,1.3517,1.3684,1.3849,1.4015,1.4184]","[1,1,1,1,1,1,1,1,1,1,1,1,1,1,1,1,1,1,1,1,1,1,1,1,1,1,1,1,1,1,1,1,1,1,1,1,1,1,2,2,2,2,2,2,2,2,2,2,2,2,2,2,2,2,2,2,2,2,2,2,2,2,2,2,2,2,2,2,2,2,2,2,2,2,2,2,2,2,2,2,2,2,2,2,2,2]",13,61.1358,4,25,0,25,0,1,236290,3,SV_6SxWlNLsoRj8nqK,304B,2022-07-15_13h24.30.164,implicit_time,2021.1.4,Linux x86_64,59.95563283
terminal,135,0,0,10,NA,0,NA,0,3,0.5,FALSE,practice,1,"[-0.0125,-0.0125,-0.0125,-0.0125,-0.0125,-0.010417,-0.010417,-0.008333,-0.00625,-0.00625,-0.00625,-0.004167,-0.004167,-0.004167,-0.004167,-0.004167,-0.004167,-0.004167,-0.00625,-0.014583,-0.027083,-0.033333,-0.054167,-0.08125,-0.095833,-0.135417,-0.179167,-0.202083,-0.252083,-0.30625,-0.335417,-0.39375,-0.452083,-0.48125,-0.539583,-0.591667,-0.616667,-0.6625,-0.7,-0.714583,-0.739583,-0.75625,-0.760417,-0.766667,-0.766667,-0.764583,-0.758333,-0.745833,-0.7375,-0.7125,-0.68125,-0.664583,-0.627083,-0.585417,-0.535417,-0.508333,-0.45,-0.420833,-0.358333,-0.29375,-0.2625,-0.2,-0.14375,-0.116667,-0.06875,-0.025,0.010417,0.025,0.047917,0.05625,0.070833,0.077083,0.079167,0.08125,0.08125,0.08125,0.08125,0.08125,0.08125,0.08125,0.08125,0.083333,0.085417,0.0875,0.089583,0.089583,0.089583,0.089583,0.089583,0.089583,0.089583,0.089583,0.089583,0.089583,0.089583,0.089583,0.089583,0.089583,0.089583,0.089583,0.089583,0.0875,0.0875,0.085417,0.08125,0.079167,0.072917,0.066667,0.0625,0.05625,0.047917,0.041667,0.039583,0.0375,0.033333,0.029167,0.027083,0.025]","[-0.014222,-0.014222,-0.014222,-0.014222,-0.014222,-0.011111,-0.011111,-0.011111,-0.008,-0.008,-0.008,-0.008,-0.004889,-0.004889,-0.004889,-0.004889,-0.004889,-0.004889,-0.001778,0.007556,0.026222,0.038667,0.066667,0.100889,0.125778,0.175556,0.237778,0.268889,0.331111,0.396444,0.427556,0.486667,0.542667,0.570667,0.617333,0.654667,0.673333,0.701333,0.723111,0.729333,0.744889,0.751111,0.751111,0.751111,0.748,0.744889,0.729333,0.710667,0.701333,0.673333,0.639111,0.620444,0.58,0.533333,0.480444,0.449333,0.387111,0.356,0.290667,0.222222,0.191111,0.125778,0.063556,0.038667,-0.011111,-0.051556,-0.079556,-0.088889,-0.107556,-0.113778,-0.123111,-0.129333,-0.129333,-0.129333,-0.129333,-0.129333,-0.129333,-0.129333,-0.129333,-0.129333,-0.132444,-0.132444,-0.132444,-0.132444,-0.135556,-0.135556,-0.135556,-0.135556,-0.135556,-0.135556,-0.135556,-0.135556,-0.135556,-0.135556,-0.135556,-0.135556,-0.135556,-0.135556,-0.135556,-0.135556,-0.132444,-0.132444,-0.132444,-0.129333,-0.123111,-0.12,-0.113778,-0.104444,-0.101333,-0.088889,-0.076444,-0.070222,-0.067111,-0.064,-0.057778,-0.048444,-0.039111,-0.032889]","[0.0002,0.0171,0.0339,0.0506,0.0673,0.0841,0.0999,0.1167,0.1332,0.1499,0.1666,0.1835,0.2002,0.2169,0.2332,0.2501,0.2667,0.2836,0.3002,0.317,0.3341,0.3504,0.3679,0.3842,0.4007,0.4171,0.434,0.4507,0.4673,0.4839,0.5006,0.5172,0.534,0.5506,0.5674,0.584,0.6009,0.6176,0.6343,0.6509,0.6677,0.6842,0.7009,0.7176,0.7341,0.7509,0.7676,0.7843,0.801,0.8177,0.8343,0.8511,0.8677,0.8845,0.901,0.9179,0.9344,0.951,0.968,0.9846,1.0013,1.018,1.0346,1.0513,1.068,1.0847,1.1014,1.1181,1.1348,1.1513,1.1681,1.1848,1.2015,1.218,1.2347,1.2513,1.2682,1.2848,1.3015,1.3182,1.3349,1.3516,1.3683,1.3852,1.4018,1.4184,1.4349,1.4517,1.4684,1.485,1.5015,1.5183,1.5352,1.5519,1.5684,1.585,1.6017,1.6186,1.6352,1.6519,1.6686,1.6856,1.7021,1.7188,1.7353,1.752,1.7688,1.7854,1.8021,1.819,1.8359,1.8532,1.8694,1.8852,1.9026,1.9182,1.935,1.9516]","[1,1,1,1,1,1,1,1,1,1,1,1,1,1,1,1,1,1,1,1,1,1,1,1,1,1,1,1,1,1,1,1,1,1,1,1,1,2,2,2,2,2,2,2,2,2,2,2,2,2,2,2,2,2,2,2,2,2,2,2,2,2,2,2,2,2,2,2,2,2,2,2,2,2,2,2,2,2,2,2,2,2,2,2,2,2,2,2,2,2,2,2,2,2,2,2,2,2,2,2,2,2,2,2,2,2,2,2,2,2,2,2,2,2,2,2,2,2]",14,63.6043,4,26,0,26,0,1,236290,3,SV_6SxWlNLsoRj8nqK,304B,2022-07-15_13h24.30.164,implicit_time,2021.1.4,Linux x86_64,59.95563283
terminal,142.5,0,0,10,NA,0,NA,0,0,0.5,FALSE,practice,0,"[0.0125,0.0125,0.0125,0.0125,0.0125,0.0125,0.0125,0.0125,0.0125,0.014583,0.014583,0.014583,0.014583,0.014583,0.014583,0.014583,0.014583,0.014583,0.014583,0.0125,0.010417,0,-0.008333,-0.025,-0.045833,-0.075,-0.09375,-0.1375,-0.1625,-0.21875,-0.28125,-0.352083,-0.3875,-0.464583,-0.504167,-0.585417,-0.666667,-0.745833,-0.785417,-0.858333,-0.891667,-0.927083,-0.929167,-0.927083,-0.927083,-0.925,-0.925,-0.920833,-0.916667,-0.897917,-0.88125,-0.841667,-0.81875,-0.772917,-0.722917,-0.670833,-0.64375,-0.589583,-0.5625,-0.508333,-0.452083,-0.395833,-0.36875,-0.314583,-0.2875,-0.2375,-0.19375,-0.154167,-0.1375,-0.104167,-0.089583,-0.066667,-0.047917,-0.041667,-0.03125,-0.025,-0.022917,-0.020833]","[0.001333,0.001333,0.001333,0.001333,0.001333,0.001333,0.001333,0.001333,0.001333,0.001333,0.001333,0.001333,0.001333,0.001333,0.001333,0.001333,0.001333,0.001333,0.001333,0.001333,0.001333,0.007556,0.010667,0.023111,0.044889,0.069778,0.085333,0.119556,0.138222,0.181778,0.228444,0.275111,0.296889,0.346667,0.371556,0.421333,0.471111,0.511556,0.533333,0.564444,0.58,0.592444,0.589333,0.589333,0.586222,0.586222,0.586222,0.589333,0.592444,0.589333,0.583111,0.564444,0.548889,0.520889,0.489778,0.458667,0.44,0.405778,0.387111,0.352889,0.318667,0.284444,0.268889,0.237778,0.222222,0.191111,0.163111,0.141333,0.128889,0.107111,0.097778,0.082222,0.069778,0.063556,0.054222,0.044889,0.041778,0.035556]","[0.0006,0.0163,0.0334,0.05,0.0663,0.0832,0.0999,0.1162,0.1328,0.1502,0.1662,0.1833,0.2001,0.2165,0.2331,0.2498,0.2666,0.2832,0.3003,0.3168,0.3335,0.3504,0.3669,0.3836,0.4003,0.4169,0.4336,0.4505,0.467,0.4839,0.5006,0.5173,0.534,0.5507,0.5671,0.5838,0.6006,0.6174,0.634,0.6506,0.6673,0.6839,0.7008,0.7175,0.7342,0.7509,0.7673,0.7841,0.801,0.8176,0.8343,0.8508,0.8676,0.8844,0.9011,0.9179,0.9344,0.9509,0.9676,0.9845,1.0012,1.0179,1.0346,1.0512,1.0678,1.0845,1.1013,1.118,1.1346,1.151,1.1678,1.1847,1.2013,1.2181,1.2347,1.2512,1.2678,1.2849]","[1,1,1,1,1,1,1,1,1,1,1,1,1,1,1,1,1,1,1,1,1,1,1,1,1,1,1,1,1,1,1,1,1,1,1,1,1,1,1,2,2,2,2,2,2,2,2,2,2,2,2,2,2,2,2,2,2,2,2,2,2,2,2,2,2,2,2,2,2,2,2,2,2,2,2,2,2,2]",14,65.4064,4,27,0,27,0,1,236290,3,SV_6SxWlNLsoRj8nqK,304B,2022-07-15_13h24.30.164,implicit_time,2021.1.4,Linux x86_64,59.95563283
terminal,75,0,0,10,NA,0,NA,0,3,0.5,FALSE,practice,1,"[-0.002083,-0.002083,-0.002083,-0.002083,-0.002083,-0.002083,-0.002083,-0.002083,-0.002083,-0.002083,-0.002083,-0.002083,-0.002083,-0.002083,-0.004167,-0.00625,-0.00625,-0.008333,-0.010417,-0.010417,-0.0125,-0.0125,-0.010417,-0.008333,-0.002083,0,0.010417,0.025,0.035417,0.060417,0.089583,0.104167,0.135417,0.170833,0.1875,0.225,0.264583,0.285417,0.310417,0.314583,0.3125,0.310417,0.308333,0.308333,0.30625,0.302083,0.297917,0.295833,0.289583,0.28125,0.264583,0.25625,0.235417,0.214583,0.191667,0.179167,0.154167,0.141667,0.116667,0.095833,0.075,0.064583,0.047917,0.041667,0.03125,0.020833,0.0125,0.010417,0.004167,0,-0.002083,-0.008333,-0.0125]","[-0.001778,-0.001778,-0.001778,-0.001778,-0.001778,-0.001778,-0.001778,-0.001778,-0.001778,-0.001778,-0.001778,-0.001778,-0.001778,-0.001778,-0.001778,0.001333,0.004444,0.004444,0.007556,0.010667,0.02,0.032444,0.041778,0.069778,0.107111,0.128889,0.184889,0.253333,0.293778,0.377778,0.464889,0.508444,0.595556,0.682667,0.723111,0.807111,0.884889,0.922222,0.965778,0.972,0.972,0.972,0.972,0.972,0.975111,0.975111,0.978222,0.972,0.947111,0.925333,0.875556,0.850667,0.794667,0.732444,0.667111,0.636,0.567556,0.533333,0.464889,0.399556,0.340444,0.315556,0.265778,0.244,0.203556,0.169333,0.141333,0.128889,0.104,0.082222,0.069778,0.048,0.029333]","[0.0005,0.0168,0.0342,0.0497,0.0671,0.0838,0.0997,0.1172,0.133,0.1506,0.1665,0.184,0.2001,0.217,0.2344,0.2512,0.2668,0.2836,0.3004,0.3168,0.3345,0.3503,0.3671,0.3837,0.4004,0.417,0.4339,0.4503,0.4671,0.4839,0.5005,0.517,0.5339,0.5506,0.5673,0.584,0.6007,0.6174,0.6341,0.651,0.6674,0.6842,0.7006,0.7172,0.7341,0.7511,0.7676,0.7843,0.8008,0.8174,0.8344,0.851,0.8677,0.8844,0.9009,0.9177,0.9344,0.9511,0.9678,0.9846,1.001,1.0177,1.0344,1.0512,1.068,1.0846,1.101,1.1178,1.1347,1.1513,1.168,1.1848,1.2013]","[1,1,1,1,1,1,1,1,1,1,1,1,1,1,1,1,1,1,1,1,1,1,1,1,1,1,1,1,1,1,1,1,1,1,1,1,1,2,2,2,2,2,2,2,2,2,2,2,2,2,2,2,2,2,2,2,2,2,2,2,2,2,2,2,2,2,2,2,2,2,2,2,2]",15,67.124,4,28,0,28,0,1,236290,3,SV_6SxWlNLsoRj8nqK,304B,2022-07-15_13h24.30.164,implicit_time,2021.1.4,Linux x86_64,59.95563283
terminal,82.5,0,0,10,NA,0,NA,0,0,0.5,FALSE,practice,0,"[0.004167,0.004167,0.004167,0.004167,0.004167,0.004167,0.004167,0.004167,0.004167,0.004167,0.004167,0.004167,0.004167,0.004167,0.004167,0.004167,0.004167,0.004167,0.004167,0.002083,0.002083,0,0,0,0,0.002083,0.004167,0.00625,0.008333,0.010417,0.0125,0.014583,0.025,0.033333,0.060417,0.079167,0.08125,0.079167,0.072917,0.06875,0.060417,0.052083,0.047917,0.039583,0.035417,0.035417,0.035417,0.0375,0.0375,0.041667,0.045833,0.045833,0.041667,0.035417,0.03125,0.020833,0.008333,0.002083,-0.010417,-0.025,-0.033333,-0.047917,-0.060417,-0.064583,-0.077083,-0.0875,-0.09375,-0.102083,-0.108333,-0.1125,-0.116667,-0.122917,-0.125,-0.13125,-0.135417,-0.135417,-0.1375,-0.135417,-0.135417,-0.13125,-0.120833,-0.116667,-0.104167,-0.091667,-0.085417,-0.075,-0.066667,-0.0625,-0.058333,-0.052083,-0.05,-0.045833,-0.04375,-0.04375,-0.04375,-0.041667,-0.041667,-0.039583,-0.039583,-0.039583,-0.039583,-0.035417,-0.029167]","[0.013778,0.013778,0.013778,0.013778,0.013778,0.013778,0.013778,0.013778,0.013778,0.013778,0.013778,0.013778,0.013778,0.013778,0.013778,0.013778,0.013778,0.013778,0.02,0.026222,0.044889,0.060444,0.094667,0.135111,0.184889,0.216,0.287556,0.328,0.418222,0.517778,0.620444,0.673333,0.785333,0.838222,0.944,1.006222,1.018667,1.015556,1.012444,1.012444,1.009333,1.012444,1.012444,1.012444,1.015556,1.012444,1.003111,0.968889,0.947111,0.900444,0.844444,0.813333,0.751111,0.682667,0.648444,0.573778,0.496,0.458667,0.380889,0.309333,0.275111,0.212889,0.156889,0.132,0.085333,0.048,0.029333,0.001333,-0.026667,-0.039111,-0.060889,-0.079556,-0.088889,-0.101333,-0.113778,-0.116889,-0.12,-0.12,-0.12,-0.116889,-0.113778,-0.107556,-0.098222,-0.085778,-0.079556,-0.067111,-0.054667,-0.051556,-0.042222,-0.036,-0.036,-0.029778,-0.029778,-0.026667,-0.026667,-0.029778,-0.029778,-0.029778,-0.029778,-0.026667,-0.026667,-0.026667,-0.020444]","[0.0005,0.0164,0.0321,0.0496,0.0654,0.0836,0.0993,0.1163,0.1331,0.1502,0.166,0.1822,0.199,0.2164,0.2332,0.2489,0.2671,0.2827,0.2994,0.3164,0.3331,0.3495,0.3663,0.383,0.3994,0.4162,0.4329,0.4498,0.4665,0.4832,0.4996,0.5163,0.5332,0.5499,0.5666,0.5832,0.5997,0.6165,0.6332,0.65,0.6669,0.6834,0.6999,0.7166,0.7335,0.7502,0.7668,0.7834,0.7999,0.8167,0.8334,0.8502,0.8668,0.8834,0.9003,0.9168,0.9337,0.9505,0.9671,0.9836,1.0003,1.0169,1.0337,1.0504,1.0671,1.0837,1.1004,1.117,1.1337,1.1505,1.1671,1.1836,1.2003,1.2172,1.2337,1.2507,1.2672,1.2839,1.3005,1.3175,1.3341,1.3508,1.3672,1.384,1.4006,1.4176,1.4339,1.4509,1.4673,1.484,1.5009,1.5176,1.5343,1.5509,1.5675,1.5841,1.6008,1.6176,1.6342,1.6511,1.6676,1.6843,1.701]","[1,1,1,1,1,1,1,1,1,1,1,1,1,1,1,1,1,1,1,1,1,1,1,1,1,1,1,1,1,1,1,1,1,1,1,2,2,2,2,2,2,2,2,2,2,2,2,2,2,2,2,2,2,2,2,2,2,2,2,2,2,2,2,2,2,2,2,2,2,2,2,2,2,2,2,2,2,2,2,2,2,2,2,2,2,2,2,2,2,2,2,2,2,2,2,2,2,2,2,2,2,2,2]",15,69.8763,4,29,0,29,0,1,236290,3,SV_6SxWlNLsoRj8nqK,304B,2022-07-15_13h24.30.164,implicit_time,2021.1.4,Linux x86_64,59.95563283
terminal,105,0,0,10,NA,0,NA,0,3,0.5,FALSE,practice,1,"[0.010417,0.008333,0.008333,0.00625,0.00625,0.004167,0.004167,0.002083,0.002083,0.002083,0,0,0,0,0,0,0,0,0,-0.002083,-0.004167,-0.010417,-0.01875,-0.022917,-0.033333,-0.041667,-0.058333,-0.075,-0.095833,-0.104167,-0.127083,-0.139583,-0.164583,-0.191667,-0.220833,-0.2375,-0.26875,-0.283333,-0.3125,-0.327083,-0.33125,-0.333333,-0.341667,-0.34375,-0.35,-0.35,-0.35,-0.35,-0.345833,-0.3375,-0.316667,-0.289583,-0.277083,-0.25,-0.225,-0.197917,-0.183333,-0.15625,-0.14375,-0.11875,-0.095833,-0.079167,-0.070833,-0.05625,-0.047917,-0.0375,-0.025,-0.0125,-0.008333,0.002083,0.00625,0.014583,0.022917]","[-0.008,-0.008,-0.008,-0.008,-0.008,-0.008,-0.008,-0.008,-0.008,-0.008,-0.008,-0.008,-0.008,-0.008,-0.008,-0.008,-0.008,-0.008,-0.004889,-0.001778,0.007556,0.026222,0.057333,0.076,0.122667,0.150667,0.209778,0.278222,0.359111,0.399556,0.483556,0.524,0.604889,0.682667,0.757333,0.791556,0.86,0.891111,0.947111,0.975111,0.975111,0.972,0.968889,0.965778,0.965778,0.965778,0.965778,0.965778,0.959556,0.950222,0.916,0.869333,0.841333,0.782222,0.723111,0.657778,0.626667,0.561333,0.527111,0.461778,0.396444,0.337333,0.312444,0.259556,0.237778,0.191111,0.153778,0.119556,0.104,0.076,0.066667,0.044889,0.026222]","[0.0005,0.0164,0.0339,0.0505,0.0672,0.0838,0.1003,0.1173,0.1333,0.1498,0.1667,0.1843,0.1999,0.2159,0.2335,0.2496,0.2662,0.2833,0.2999,0.3166,0.3329,0.3498,0.3677,0.3836,0.4,0.4166,0.4331,0.45,0.4664,0.4832,0.5001,0.5167,0.5332,0.5501,0.5666,0.5833,0.5999,0.6167,0.6333,0.6501,0.6667,0.6836,0.7006,0.7168,0.7334,0.7503,0.7667,0.7835,0.8003,0.8168,0.8337,0.8503,0.8672,0.8839,0.9004,0.9171,0.9339,0.9505,0.9672,0.984,1.0007,1.0173,1.034,1.0506,1.0675,1.084,1.1007,1.1173,1.134,1.1506,1.1674,1.184,1.2007]","[1,1,1,1,1,1,1,1,1,1,1,1,1,1,1,1,1,1,1,1,1,1,1,1,1,1,1,1,1,1,1,1,1,1,1,1,1,1,2,2,2,2,2,2,2,2,2,2,2,2,2,2,2,2,2,2,2,2,2,2,2,2,2,2,2,2,2,2,2,2,2,2,2]",16,71.5938,4,30,0,30,0,1,236290,3,SV_6SxWlNLsoRj8nqK,304B,2022-07-15_13h24.30.164,implicit_time,2021.1.4,Linux x86_64,59.95563283
terminal,97.5,0,0,10,NA,0,NA,0,0,0.5,FALSE,practice,0,"[-0.00625,-0.00625,-0.00625,-0.00625,-0.00625,-0.00625,-0.00625,-0.00625,-0.00625,-0.00625,-0.00625,-0.00625,-0.00625,-0.00625,-0.00625,-0.00625,-0.00625,-0.00625,-0.00625,-0.00625,-0.00625,-0.00625,-0.008333,-0.0125,-0.0125,-0.014583,-0.01875,-0.022917,-0.033333,-0.04375,-0.05,-0.060417,-0.06875,-0.072917,-0.079167,-0.083333,-0.083333,-0.0875,-0.089583,-0.095833,-0.1,-0.10625,-0.110417,-0.116667,-0.11875,-0.120833,-0.125,-0.122917,-0.11875,-0.110417,-0.104167,-0.09375,-0.083333,-0.072917,-0.066667,-0.05625,-0.052083,-0.041667,-0.035417,-0.029167,-0.025,-0.014583,-0.010417,-0.002083,0.004167,0.010417,0.014583,0.020833,0.022917,0.029167,0.033333,0.0375,0.0375,0.039583,0.039583,0.041667,0.041667,0.041667,0.041667,0.041667,0.041667,0.039583,0.039583,0.0375,0.0375,0.035417,0.033333]","[0.001333,0.001333,0.001333,0.001333,0.001333,0.001333,0.001333,0.001333,0.001333,0.001333,0.001333,0.001333,0.001333,0.001333,0.001333,-0.001778,-0.001778,-0.001778,0.001333,0.004444,0.013778,0.023111,0.044889,0.079111,0.100889,0.150667,0.209778,0.244,0.318667,0.399556,0.443111,0.536444,0.629778,0.673333,0.766667,0.850667,0.891111,0.962667,0.990667,1.015556,1.015556,1.012444,1.012444,1.012444,1.009333,1.012444,1.009333,1.003111,0.993778,0.956444,0.931556,0.878667,0.819556,0.757333,0.726222,0.654667,0.620444,0.548889,0.477333,0.412,0.377778,0.318667,0.290667,0.240889,0.194222,0.153778,0.138222,0.110222,0.100889,0.082222,0.066667,0.054222,0.051111,0.044889,0.041778,0.038667,0.035556,0.035556,0.035556,0.035556,0.035556,0.035556,0.032444,0.026222,0.026222,0.023111,0.02]","[0.0005,0.0164,0.033,0.0497,0.0672,0.0831,0.0997,0.1164,0.1331,0.1498,0.1673,0.1833,0.2007,0.2164,0.234,0.2502,0.2669,0.2835,0.3003,0.3188,0.3338,0.3503,0.3674,0.3838,0.4005,0.4172,0.4338,0.4505,0.467,0.484,0.5006,0.5173,0.5341,0.5508,0.5673,0.5841,0.6008,0.6179,0.6342,0.6508,0.6676,0.6843,0.7007,0.7175,0.734,0.7509,0.7676,0.7844,0.801,0.8176,0.8343,0.8508,0.8677,0.8844,0.901,0.918,0.9343,0.9509,0.9677,0.9846,1.0009,1.018,1.0347,1.0512,1.0677,1.0843,1.1013,1.118,1.1345,1.1511,1.1681,1.1847,1.2016,1.218,1.2347,1.2513,1.268,1.2848,1.3013,1.318,1.3349,1.3514,1.3681,1.3849,1.4014,1.4183,1.435]","[1,1,1,1,1,1,1,1,1,1,1,1,1,1,1,1,1,1,1,1,1,1,1,1,1,1,1,1,1,1,1,1,1,1,1,1,1,2,2,2,2,2,2,2,2,2,2,2,2,2,2,2,2,2,2,2,2,2,2,2,2,2,2,2,2,2,2,2,2,2,2,2,2,2,2,2,2,2,2,2,2,2,2,2,2,2,2]",16,74.2461,4,31,0,31,0,1,236290,3,SV_6SxWlNLsoRj8nqK,304B,2022-07-15_13h24.30.164,implicit_time,2021.1.4,Linux x86_64,59.95563283
terminal,75,0,0,10,NA,0,NA,0,3,0.5,FALSE,baseline,1,"[0.002083,0.002083,0.002083,0.002083,0.002083,0.002083,0.002083,0.002083,0.002083,0.002083,0.002083,0.002083,0.002083,0.002083,0.002083,0.002083,0.002083,0.002083,0.002083,0.002083,0,0,0,0,0,0,0,0,0.002083,0.004167,0.0125,0.025,0.041667,0.052083,0.072917,0.085417,0.110417,0.1375,0.166667,0.183333,0.214583,0.23125,0.266667,0.3,0.333333,0.347917,0.379167,0.395833,0.427083,0.445833,0.445833,0.445833,0.441667,0.441667,0.4375,0.433333,0.422917,0.416667,0.408333,0.404167,0.404167,0.404167,0.404167,0.402083,0.39375,0.379167,0.36875,0.345833,0.333333,0.302083,0.264583,0.225,0.204167,0.166667,0.147917,0.114583,0.085417,0.060417,0.047917,0.027083,0.016667,-0.002083,-0.01875,-0.029167]","[-0.001778,-0.001778,-0.001778,-0.001778,-0.001778,-0.001778,-0.001778,-0.001778,-0.001778,-0.001778,-0.001778,-0.001778,-0.001778,-0.001778,-0.001778,-0.001778,-0.001778,-0.001778,-0.001778,-0.001778,-0.001778,-0.001778,-0.001778,-0.001778,-0.001778,-0.001778,-0.001778,-0.001778,0.004444,0.010667,0.032444,0.063556,0.104,0.125778,0.169333,0.194222,0.250222,0.309333,0.371556,0.402667,0.468,0.499111,0.567556,0.639111,0.707556,0.738667,0.800889,0.828889,0.888,0.922222,0.928444,0.928444,0.925333,0.925333,0.925333,0.928444,0.931556,0.934667,0.937778,0.940889,0.940889,0.937778,0.934667,0.909778,0.872444,0.828889,0.807111,0.757333,0.729333,0.667111,0.601778,0.533333,0.496,0.424444,0.390222,0.321778,0.259556,0.203556,0.178667,0.135111,0.116444,0.079111,0.044889,0.013778]","[0.0006,0.0174,0.0328,0.0489,0.0659,0.0821,0.0994,0.1155,0.1325,0.1504,0.1664,0.183,0.1997,0.2161,0.2328,0.2498,0.2662,0.283,0.2997,0.3162,0.3329,0.3498,0.3662,0.383,0.3996,0.4164,0.4329,0.4498,0.4664,0.4831,0.4998,0.5163,0.5331,0.55,0.5665,0.5834,0.5999,0.6165,0.6331,0.6501,0.6668,0.6833,0.7002,0.7166,0.7334,0.7501,0.767,0.7835,0.8004,0.8192,0.8339,0.8503,0.8669,0.8837,0.9005,0.917,0.9337,0.9504,0.9672,0.9839,1.0004,1.0171,1.0336,1.0508,1.067,1.084,1.1006,1.1171,1.1337,1.1508,1.1677,1.1846,1.2012,1.2174,1.2345,1.251,1.2676,1.2843,1.3009,1.3175,1.3341,1.3508,1.3677,1.3843]","[1,1,1,1,1,1,1,1,1,1,1,1,1,1,1,1,1,1,1,1,1,1,1,1,1,1,1,1,1,1,1,1,1,1,1,1,1,1,1,1,1,1,1,1,1,1,1,1,2,2,2,2,2,2,2,2,2,2,2,2,2,2,2,2,2,2,2,2,2,2,2,2,2,2,2,2,2,2,2,2,2,2,2,2]",1,89.6956,4,32,0,32,0,1,236290,3,SV_6SxWlNLsoRj8nqK,304B,2022-07-15_13h24.30.164,implicit_time,2021.1.4,Linux x86_64,59.95563283
terminal,82.5,0,0,10,NA,0,NA,0,0,0.5,FALSE,baseline,0,"[-0.002083,-0.002083,-0.004167,-0.004167,-0.004167,-0.004167,-0.004167,-0.002083,-0.004167,-0.004167,-0.004167,-0.00625,-0.00625,-0.008333,-0.008333,-0.008333,-0.008333,-0.008333,-0.008333,-0.008333,-0.008333,-0.008333,-0.008333,-0.008333,-0.008333,-0.010417,-0.010417,-0.010417,-0.0125,-0.0125,-0.014583,-0.016667,-0.014583,-0.0125,-0.002083,0.016667,0.025,0.045833,0.054167,0.072917,0.097917,0.129167,0.147917,0.175,0.18125,0.183333,0.18125,0.179167,0.179167,0.177083,0.175,0.170833,0.164583,0.1625,0.160417,0.158333,0.158333,0.15,0.141667,0.135417,0.127083,0.1125,0.104167,0.083333,0.064583,0.045833,0.0375,0.020833,0.0125,-0.002083,-0.016667,-0.020833,-0.03125,-0.0375,-0.039583,-0.041667,-0.041667,-0.041667,-0.039583,-0.039583,-0.039583,-0.0375,-0.0375]","[0.007556,0.004444,0.004444,0.004444,0.004444,0.004444,0.004444,0.001333,-0.001778,-0.001778,-0.008,-0.008,-0.011111,-0.017333,-0.020444,-0.020444,-0.020444,-0.020444,-0.020444,-0.020444,-0.020444,-0.020444,-0.020444,-0.020444,-0.017333,-0.008,0.004444,0.016889,0.044889,0.082222,0.107111,0.163111,0.231556,0.268889,0.349778,0.436889,0.480444,0.570667,0.614222,0.698222,0.779111,0.863111,0.903556,0.972,0.993778,1.006222,1.006222,1.006222,1.006222,1.006222,1.006222,1.006222,1.006222,1.006222,1.003111,0.978222,0.959556,0.906667,0.847556,0.816444,0.751111,0.679556,0.642222,0.564444,0.486667,0.412,0.374667,0.303111,0.268889,0.206667,0.150667,0.122667,0.079111,0.044889,0.029333,0.010667,-0.004889,-0.011111,-0.017333,-0.020444,-0.020444,-0.020444,-0.017333]","[0.0005,0.0169,0.0327,0.049,0.0658,0.0825,0.0989,0.1158,0.1327,0.1496,0.1659,0.1828,0.1997,0.2162,0.2332,0.2492,0.2659,0.2826,0.299,0.3161,0.3326,0.3494,0.3662,0.3831,0.3997,0.4162,0.4331,0.4498,0.4662,0.4847,0.5005,0.5171,0.5335,0.5504,0.567,0.5847,0.6005,0.6171,0.6337,0.6505,0.6672,0.6848,0.7008,0.7174,0.734,0.751,0.7675,0.7843,0.8016,0.8171,0.8344,0.8512,0.8676,0.8844,0.9013,0.9178,0.9345,0.9513,0.9676,0.9843,1.0013,1.0176,1.0343,1.0515,1.0678,1.0858,1.1016,1.1191,1.1347,1.1509,1.1676,1.1841,1.2011,1.2172,1.2339,1.251,1.2673,1.2844,1.3009,1.3176,1.334,1.351,1.3678]","[1,1,1,1,1,1,1,1,1,1,1,1,1,1,1,1,1,1,1,1,1,1,1,1,1,1,1,1,1,1,1,1,1,1,1,1,1,1,1,1,1,1,1,2,2,2,2,2,2,2,2,2,2,2,2,2,2,2,2,2,2,2,2,2,2,2,2,2,2,2,2,2,2,2,2,2,2,2,2,2,2,2,2]",1,92.4826,4,33,0,33,0,1,236290,3,SV_6SxWlNLsoRj8nqK,304B,2022-07-15_13h24.30.164,implicit_time,2021.1.4,Linux x86_64,59.95563283
terminal,135,0,0,10,NA,0,NA,0,3,0.5,FALSE,baseline,1,"[0.008333,0.008333,0.008333,0.008333,0.008333,0.008333,0.008333,0.008333,0.008333,0.008333,0.008333,0.008333,0.008333,0.008333,0.008333,0.008333,0.008333,0.008333,0.008333,0.008333,0.008333,0.008333,0.00625,0.004167,0,-0.00625,-0.01875,-0.029167,-0.05,-0.079167,-0.097917,-0.139583,-0.191667,-0.220833,-0.28125,-0.341667,-0.372917,-0.433333,-0.491667,-0.520833,-0.579167,-0.635417,-0.6625,-0.704167,-0.71875,-0.71875,-0.716667,-0.716667,-0.716667,-0.714583,-0.714583,-0.714583,-0.716667,-0.716667,-0.714583,-0.702083,-0.691667,-0.658333,-0.620833,-0.579167,-0.558333,-0.514583,-0.491667,-0.445833,-0.4,-0.35625,-0.335417,-0.29375,-0.270833,-0.229167,-0.1875,-0.152083,-0.133333,-0.1,-0.083333,-0.052083,-0.025]","[-0.004889,-0.004889,-0.004889,-0.004889,-0.004889,-0.004889,-0.004889,-0.004889,-0.004889,-0.004889,-0.004889,-0.004889,-0.004889,-0.004889,-0.004889,-0.004889,-0.004889,-0.004889,-0.004889,-0.004889,-0.004889,-0.004889,-0.004889,-0.004889,-0.004889,0.001333,0.013778,0.02,0.041778,0.072889,0.091556,0.138222,0.191111,0.222222,0.281333,0.346667,0.380889,0.455556,0.530222,0.567556,0.642222,0.710667,0.738667,0.782222,0.797778,0.794667,0.794667,0.791556,0.791556,0.791556,0.791556,0.791556,0.791556,0.791556,0.791556,0.782222,0.769778,0.741778,0.704444,0.664,0.642222,0.598667,0.573778,0.527111,0.474222,0.418222,0.390222,0.337333,0.309333,0.256444,0.206667,0.163111,0.144444,0.107111,0.091556,0.060444,0.032444]","[0.0006,0.0168,0.0331,0.0496,0.0668,0.0832,0.0996,0.1164,0.1329,0.1496,0.1665,0.1833,0.1995,0.216,0.2331,0.2498,0.2667,0.2829,0.2999,0.3167,0.3335,0.3499,0.3672,0.3836,0.4001,0.417,0.4335,0.4503,0.4674,0.4837,0.5004,0.5172,0.5336,0.5501,0.5672,0.5837,0.6002,0.6172,0.6338,0.6503,0.6674,0.6837,0.7004,0.7196,0.734,0.7505,0.7674,0.7841,0.8005,0.8174,0.8339,0.8504,0.8675,0.8852,0.9008,0.9175,0.9339,0.9507,0.9675,0.9841,1.0006,1.0177,1.0341,1.0508,1.0676,1.0842,1.1008,1.1178,1.1342,1.1512,1.168,1.1843,1.2009,1.2178,1.2345,1.251,1.268]","[1,1,1,1,1,1,1,1,1,1,1,1,1,1,1,1,1,1,1,1,1,1,1,1,1,1,1,1,1,1,1,1,1,1,1,1,1,1,1,1,1,1,2,2,2,2,2,2,2,2,2,2,2,2,2,2,2,2,2,2,2,2,2,2,2,2,2,2,2,2,2,2,2,2,2,2,2]",2,94.2678,4,34,0,34,0,1,236290,3,SV_6SxWlNLsoRj8nqK,304B,2022-07-15_13h24.30.164,implicit_time,2021.1.4,Linux x86_64,59.95563283
terminal,127.5,0,0,10,NA,0,NA,0,0,0.5,FALSE,baseline,0,"[0,0,0,0,0,0,0,0,0,0,0,0,0,0,0,0,0,-0.002083,-0.002083,0,0,-0.002083,-0.008333,-0.0125,-0.025,-0.033333,-0.05625,-0.0875,-0.125,-0.147917,-0.197917,-0.28125,-0.310417,-0.341667,-0.4,-0.429167,-0.4875,-0.51875,-0.583333,-0.65,-0.70625,-0.720833,-0.73125,-0.73125,-0.729167,-0.729167,-0.729167,-0.729167,-0.729167,-0.73125,-0.73125,-0.729167,-0.71875,-0.70625,-0.675,-0.6375,-0.616667,-0.575,-0.554167,-0.508333,-0.4625,-0.414583,-0.389583,-0.34375,-0.320833,-0.279167,-0.2375,-0.202083,-0.185417,-0.15625,-0.145833,-0.122917,-0.10625,-0.091667,-0.0875,-0.08125,-0.079167,-0.077083,-0.075,-0.075,-0.072917,-0.072917,-0.072917,-0.072917,-0.070833,-0.06875,-0.066667,-0.058333,-0.052083,-0.039583,-0.029167,-0.01875]","[0.010667,0.010667,0.010667,0.010667,0.010667,0.010667,0.010667,0.010667,0.010667,0.010667,0.010667,0.010667,0.010667,0.010667,0.010667,0.010667,0.010667,0.010667,0.010667,0.010667,0.010667,0.010667,0.016889,0.02,0.035556,0.048,0.072889,0.107111,0.147556,0.172444,0.222222,0.306222,0.334222,0.365333,0.433778,0.468,0.542667,0.58,0.648444,0.713778,0.766667,0.782222,0.791556,0.788444,0.788444,0.785333,0.785333,0.785333,0.785333,0.785333,0.785333,0.785333,0.776,0.766667,0.738667,0.701333,0.682667,0.636,0.614222,0.564444,0.511556,0.458667,0.433778,0.384,0.359111,0.309333,0.262667,0.222222,0.203556,0.172444,0.16,0.135111,0.116444,0.104,0.097778,0.091556,0.088444,0.082222,0.079111,0.076,0.076,0.072889,0.072889,0.069778,0.066667,0.063556,0.060444,0.054222,0.051111,0.048,0.041778,0.035556]","[0.0005,0.0155,0.0309,0.0479,0.0646,0.081,0.0985,0.1151,0.131,0.1486,0.1652,0.181,0.1984,0.2146,0.2319,0.2485,0.2647,0.2822,0.2981,0.3152,0.3321,0.3485,0.3655,0.3821,0.3989,0.4161,0.4328,0.4494,0.4678,0.4859,0.502,0.5267,0.5403,0.5499,0.5662,0.5829,0.5995,0.6162,0.6331,0.6497,0.6662,0.6827,0.6994,0.7164,0.7328,0.7496,0.7672,0.7822,0.7992,0.816,0.833,0.8491,0.8665,0.8831,0.8998,0.9166,0.933,0.9498,0.9665,0.9834,1.0002,1.0168,1.0342,1.05,1.0667,1.0837,1.1001,1.1168,1.1329,1.1497,1.1663,1.1829,1.1997,1.2165,1.2332,1.2494,1.2666,1.2828,1.2999,1.3165,1.3331,1.3496,1.3665,1.3829,1.3999,1.4167,1.4333,1.4499,1.4667,1.4832,1.5002,1.5169]","[1,1,1,1,1,1,1,1,1,1,1,1,1,1,1,1,1,1,1,1,1,1,1,1,1,1,1,1,1,1,1,1,1,1,1,1,1,1,1,2,2,2,2,2,2,2,2,2,2,2,2,2,2,2,2,2,2,2,2,2,2,2,2,2,2,2,2,2,2,2,2,2,2,2,2,2,2,2,2,2,2,2,2,2,2,2,2,2,2,2,2,2]",2,96.8876,4,35,0,35,0,1,236290,3,SV_6SxWlNLsoRj8nqK,304B,2022-07-15_13h24.30.164,implicit_time,2021.1.4,Linux x86_64,59.95563283
terminal,105,0,0,10,NA,0,NA,0,3,0.5,FALSE,baseline,1,"[0.00625,0.00625,0.00625,0.00625,0.00625,0.00625,0.00625,0.00625,0.00625,0.00625,0.00625,0.00625,0.00625,0.004167,0.004167,0.004167,0.002083,0.002083,0,-0.00625,-0.010417,-0.020833,-0.035417,-0.04375,-0.060417,-0.083333,-0.108333,-0.122917,-0.152083,-0.16875,-0.2,-0.233333,-0.247917,-0.277083,-0.302083,-0.314583,-0.335417,-0.354167,-0.364583,-0.366667,-0.366667,-0.366667,-0.366667,-0.36875,-0.370833,-0.372917,-0.375,-0.375,-0.375,-0.366667,-0.358333,-0.3375,-0.3125,-0.297917,-0.272917,-0.247917,-0.225,-0.214583,-0.195833,-0.185417,-0.16875,-0.154167,-0.135417,-0.127083,-0.108333,-0.1,-0.085417,-0.072917,-0.0625,-0.058333,-0.05,-0.045833,-0.039583]","[-0.017333,-0.017333,-0.017333,-0.017333,-0.017333,-0.017333,-0.017333,-0.017333,-0.017333,-0.017333,-0.017333,-0.017333,-0.017333,-0.017333,-0.017333,-0.017333,-0.017333,-0.017333,-0.011111,0.001333,0.010667,0.032444,0.060444,0.082222,0.125778,0.181778,0.250222,0.287556,0.365333,0.405778,0.489778,0.573778,0.614222,0.695111,0.769778,0.804,0.872444,0.934667,0.965778,0.968889,0.968889,0.965778,0.965778,0.962667,0.962667,0.962667,0.965778,0.962667,0.962667,0.947111,0.931556,0.884889,0.828889,0.797778,0.735556,0.667111,0.598667,0.561333,0.486667,0.449333,0.374667,0.309333,0.247111,0.222222,0.172444,0.150667,0.110222,0.076,0.051111,0.038667,0.016889,0.007556,-0.008]","[0.0005,0.0167,0.0328,0.0493,0.0657,0.0827,0.0991,0.116,0.1326,0.1499,0.1658,0.183,0.1992,0.2165,0.2333,0.25,0.2667,0.2833,0.2997,0.3165,0.3335,0.3502,0.3668,0.3834,0.4,0.4167,0.4347,0.4501,0.4668,0.4836,0.5002,0.5167,0.5336,0.5503,0.5668,0.5836,0.6007,0.617,0.6358,0.6505,0.667,0.6839,0.7004,0.7174,0.734,0.7503,0.767,0.7839,0.8004,0.8174,0.8341,0.8506,0.8671,0.8842,0.9006,0.9175,0.9343,0.9507,0.9673,0.9841,1.0007,1.0174,1.0342,1.0508,1.0674,1.0846,1.1007,1.1178,1.1344,1.1506,1.1675,1.1846,1.2008]","[1,1,1,1,1,1,1,1,1,1,1,1,1,1,1,1,1,1,1,1,1,1,1,1,1,1,1,1,1,1,1,1,1,1,1,1,1,2,2,2,2,2,2,2,2,2,2,2,2,2,2,2,2,2,2,2,2,2,2,2,2,2,2,2,2,2,2,2,2,2,2,2,2]",3,98.6058,4,36,0,36,0,1,236290,3,SV_6SxWlNLsoRj8nqK,304B,2022-07-15_13h24.30.164,implicit_time,2021.1.4,Linux x86_64,59.95563283
terminal,97.5,0,0,10,NA,0,NA,0,0,0.5,FALSE,baseline,0,"[0.00625,0.00625,0.00625,0.00625,0.00625,0.00625,0.00625,0.00625,0.00625,0.00625,0.00625,0.00625,0.00625,0.004167,0.004167,0.002083,-0.002083,-0.008333,-0.014583,-0.020833,-0.022917,-0.027083,-0.027083,-0.033333,-0.04375,-0.060417,-0.06875,-0.089583,-0.1,-0.120833,-0.135417,-0.141667,-0.141667,-0.135417,-0.129167,-0.127083,-0.129167,-0.129167,-0.13125,-0.13125,-0.13125,-0.13125,-0.133333,-0.135417,-0.135417,-0.13125,-0.120833,-0.114583,-0.097917,-0.08125,-0.072917,-0.0625,-0.060417,-0.060417,-0.058333,-0.054167,-0.052083,-0.047917,-0.04375,-0.0375,-0.029167,-0.020833,-0.016667]","[0.004444,0.004444,0.004444,0.004444,0.004444,0.004444,0.004444,0.004444,0.004444,0.004444,0.004444,0.004444,0.004444,0.004444,0.004444,0.007556,0.007556,0.013778,0.02,0.038667,0.048,0.082222,0.107111,0.16,0.225333,0.303111,0.343556,0.436889,0.486667,0.589333,0.692,0.788444,0.832,0.916,0.984444,1.006222,1.015556,1.015556,1.012444,1.012444,1.012444,1.012444,1.012444,1.009333,1.003111,0.972,0.916,0.884889,0.819556,0.744889,0.707556,0.623556,0.536444,0.492889,0.408889,0.328,0.290667,0.219111,0.188,0.128889,0.082222,0.044889,0.029333]","[0.0006,0.0174,0.0332,0.0495,0.0661,0.0832,0.1,0.1162,0.1333,0.1496,0.1662,0.1835,0.1997,0.2169,0.2336,0.2502,0.2682,0.2838,0.3003,0.3172,0.3343,0.3529,0.3677,0.3845,0.4011,0.4177,0.4344,0.451,0.4678,0.4846,0.5011,0.518,0.5346,0.5527,0.5681,0.5849,0.6013,0.6178,0.6343,0.6513,0.6675,0.6844,0.7008,0.7182,0.7358,0.7516,0.7683,0.7853,0.8016,0.819,0.835,0.852,0.8685,0.885,0.9014,0.9181,0.9353,0.9513,0.9679,0.9846,1.0012,1.0178,1.0346]","[1,1,1,1,1,1,1,1,1,1,1,1,1,1,1,1,1,1,1,1,1,1,1,1,1,1,1,1,1,1,1,1,1,1,2,2,2,2,2,2,2,2,2,2,2,2,2,2,2,2,2,2,2,2,2,2,2,2,2,2,2,2,2]",3,100.6417,4,37,0,37,0,1,236290,3,SV_6SxWlNLsoRj8nqK,304B,2022-07-15_13h24.30.164,implicit_time,2021.1.4,Linux x86_64,59.95563283
terminal,45,0,0,10,NA,0,NA,0,3,0.5,FALSE,baseline,1,"[0,0,0,0,0,0,0,0,0,0,0,0,0,0,0,0,-0.002083,-0.004167,-0.004167,-0.004167,-0.004167,-0.004167,-0.002083,0.00625,0.022917,0.033333,0.058333,0.072917,0.10625,0.152083,0.179167,0.239583,0.30625,0.339583,0.410417,0.485417,0.522917,0.6,0.66875,0.710417,0.71875,0.71875,0.720833,0.720833,0.720833,0.722917,0.722917,0.722917,0.720833,0.708333,0.683333,0.64375,0.622917,0.577083,0.554167,0.5,0.4375,0.375,0.34375,0.279167,0.25,0.191667,0.141667,0.1,0.08125,0.047917,0.033333,0.00625]","[-0.001778,-0.001778,-0.001778,-0.001778,-0.001778,-0.001778,-0.001778,-0.001778,-0.001778,-0.001778,-0.001778,-0.001778,-0.001778,-0.001778,-0.001778,-0.001778,-0.001778,0.001333,0.004444,0.007556,0.010667,0.013778,0.023111,0.041778,0.069778,0.088444,0.132,0.156889,0.209778,0.268889,0.3,0.365333,0.433778,0.468,0.533333,0.595556,0.626667,0.682667,0.732444,0.760444,0.766667,0.766667,0.763556,0.763556,0.763556,0.763556,0.760444,0.760444,0.757333,0.744889,0.716889,0.679556,0.657778,0.614222,0.589333,0.539556,0.480444,0.421333,0.387111,0.321778,0.290667,0.228444,0.172444,0.122667,0.100889,0.060444,0.044889,0.016889]","[0.0005,0.0176,0.0333,0.0495,0.0662,0.083,0.0995,0.116,0.1328,0.1495,0.166,0.1831,0.1993,0.2161,0.2326,0.25,0.2668,0.2833,0.3002,0.3166,0.3332,0.3499,0.367,0.3836,0.4,0.4168,0.4333,0.4502,0.4669,0.4834,0.5001,0.517,0.5335,0.5504,0.5672,0.5836,0.6001,0.617,0.6338,0.6525,0.6674,0.6837,0.7003,0.7172,0.7338,0.752,0.7696,0.7846,0.8009,0.818,0.8345,0.8508,0.8678,0.8841,0.9008,0.9177,0.9342,0.951,0.9677,0.9846,1.0011,1.0177,1.0344,1.051,1.0677,1.0843,1.101,1.1178]","[1,1,1,1,1,1,1,1,1,1,1,1,1,1,1,1,1,1,1,1,1,1,1,1,1,1,1,1,1,1,1,1,1,1,1,1,1,1,2,2,2,2,2,2,2,2,2,2,2,2,2,2,2,2,2,2,2,2,2,2,2,2,2,2,2,2,2,2]",4,102.6943,4,38,0,38,0,1,236290,3,SV_6SxWlNLsoRj8nqK,304B,2022-07-15_13h24.30.164,implicit_time,2021.1.4,Linux x86_64,59.95563283
terminal,52.5,0,0,10,NA,0,NA,0,0,0.5,FALSE,baseline,0,"[0.00625,0.00625,0.00625,0.00625,0.00625,0.00625,0.00625,0.00625,0.00625,0.00625,0.00625,0.00625,0.00625,0.004167,0.002083,0.002083,0.002083,0.004167,0.010417,0.014583,0.025,0.03125,0.05,0.072917,0.104167,0.120833,0.160417,0.208333,0.235417,0.29375,0.354167,0.383333,0.447917,0.51875,0.552083,0.616667,0.641667,0.66875,0.670833,0.66875,0.66875,0.672917,0.672917,0.677083,0.679167,0.675,0.66875,0.64375,0.627083,0.589583,0.545833,0.49375,0.464583,0.402083,0.366667,0.297917,0.2375,0.183333,0.158333,0.1125,0.09375,0.0625,0.039583,0.027083,0.022917,0.01875,0.016667,0.016667,0.016667,0.01875,0.01875,0.022917,0.025,0.029167,0.033333,0.033333,0.033333,0.033333,0.033333,0.027083,0.01875,0.0125,0.010417,0.010417,0.010417,0.010417]","[-0.011111,-0.011111,-0.011111,-0.011111,-0.011111,-0.011111,-0.011111,-0.008,-0.008,-0.008,-0.008,-0.008,-0.008,-0.008,-0.004889,-0.001778,0.004444,0.013778,0.026222,0.035556,0.057333,0.069778,0.104,0.147556,0.200444,0.231556,0.296889,0.368444,0.405778,0.477333,0.548889,0.583111,0.648444,0.707556,0.732444,0.776,0.791556,0.807111,0.807111,0.807111,0.804,0.804,0.804,0.800889,0.797778,0.788444,0.779111,0.751111,0.732444,0.695111,0.651556,0.601778,0.573778,0.514667,0.480444,0.415111,0.349778,0.290667,0.262667,0.212889,0.191111,0.156889,0.128889,0.113333,0.107111,0.100889,0.100889,0.100889,0.100889,0.100889,0.100889,0.104,0.104,0.107111,0.110222,0.107111,0.107111,0.100889,0.097778,0.085333,0.072889,0.060444,0.054222,0.044889,0.041778,0.032444]","[0.0005,0.0159,0.0331,0.0493,0.0665,0.0829,0.0992,0.1163,0.1327,0.1493,0.1658,0.183,0.1998,0.2165,0.233,0.2499,0.2663,0.283,0.2999,0.3164,0.3333,0.35,0.3666,0.3832,0.4,0.4167,0.4334,0.4501,0.4666,0.4833,0.5001,0.5169,0.5335,0.5501,0.5668,0.5835,0.6003,0.617,0.6336,0.6502,0.6669,0.6838,0.7004,0.7172,0.7336,0.7505,0.7671,0.7838,0.8005,0.8173,0.8339,0.8506,0.8673,0.8839,0.9005,0.9175,0.934,0.9505,0.9672,0.984,1.0007,1.0174,1.034,1.0507,1.0674,1.0841,1.1008,1.1175,1.1341,1.1507,1.1675,1.1843,1.2009,1.2176,1.2344,1.2511,1.2676,1.2845,1.3012,1.3178,1.3342,1.351,1.3679,1.3845,1.4012,1.4179]","[1,1,1,1,1,1,1,1,1,1,1,1,1,1,1,1,1,1,1,1,1,1,1,1,1,1,1,1,1,1,1,1,1,1,1,2,2,2,2,2,2,2,2,2,2,2,2,2,2,2,2,2,2,2,2,2,2,2,2,2,2,2,2,2,2,2,2,2,2,2,2,2,2,2,2,2,2,2,2,2,2,2,2,2,2,2]",4,105.2194,4,39,0,39,0,1,236290,3,SV_6SxWlNLsoRj8nqK,304B,2022-07-15_13h24.30.164,implicit_time,2021.1.4,Linux x86_64,59.95563283
