condition_label,target,rotation_deg,cursorjump,targetjump,arrow_offset,aiming_target,aiming_direction,aiming_type,feedback_type,hold_duration,hold_target,phase,trialtype,mousex_rel,mousey_rel,mouse_time,step,points,cumulativetime,version,trials.thisRepN,trials.thisTrialN,trials.thisN,trials.thisIndex,trials.ran,participant,condition,qualtrics,group,date,expName,psychopyVersion,OS,frameRate
control,105,0,0,10,NA,0,NA,0,1,0.5,FALSE,practice,1,"[0.008333,0.008333,0.008333,0.008333,0.008333,0.008333,0.008333,0.008333,0.008333,0.008333,0.008333,0.008333,0.008333,0.008333,0.008333,0.008333,0.008333,0.008333,0.008333,0.008333,0.008333,0.008333,0.008333,0.008333,0.008333,0.00625,0.004167,-0.00625,-0.0125,-0.027083,-0.039583,-0.052083,-0.058333,-0.06875,-0.070833,-0.075,-0.072917,-0.070833,-0.070833,-0.06875,-0.06875,-0.064583,-0.05625,-0.054167,-0.05,-0.04375,-0.04375,-0.045833,-0.052083,-0.05625,-0.066667,-0.08125,-0.091667,-0.114583,-0.135417,-0.145833,-0.1625,-0.179167,-0.185417,-0.197917,-0.20625,-0.210417,-0.216667,-0.220833,-0.227083,-0.229167,-0.23125,-0.233333,-0.2375,-0.239583,-0.24375,-0.245833,-0.25,-0.25,-0.252083,-0.252083,-0.252083,-0.25,-0.247917,-0.247917,-0.24375,-0.2375,-0.23125,-0.227083,-0.21875,-0.214583,-0.20625,-0.2,-0.195833,-0.19375,-0.1875,-0.1875,-0.183333,-0.179167,-0.175,-0.1625,-0.147917,-0.141667,-0.127083,-0.114583,-0.102083,-0.09375,-0.08125,-0.075,-0.0625,-0.05625,-0.04375,-0.033333,-0.027083,-0.025,-0.020833,-0.016667,-0.014583,-0.0125,-0.0125,-0.0125,-0.010417,-0.010417,-0.00625,-0.002083,0.002083,0.004167,0.008333,0.008333,0.008333,0.008333,0.008333,0.008333,0.008333,0.008333,0.008333,0.008333,0.008333,0.008333,0.008333,0.008333,0.008333,0.008333,0.008333,0.008333,0.008333,0.008333,0.008333,0.008333,0.008333,0.008333,0.008333,0.008333,0.008333,0.008333,0.008333,0.008333,0.008333,0.008333,0.008333,0.008333,0.008333,0.008333,0.008333,0.008333,0.008333,0.00625,0.002083,0.002083]","[-0.001778,-0.001778,-0.001778,-0.001778,-0.001778,-0.001778,-0.001778,-0.001778,-0.001778,-0.001778,-0.001778,-0.001778,-0.001778,-0.001778,-0.001778,-0.001778,-0.001778,-0.001778,-0.001778,-0.001778,-0.001778,-0.001778,-0.001778,-0.001778,-0.001778,0.001333,0.004444,0.029333,0.048,0.097778,0.163111,0.231556,0.268889,0.346667,0.387111,0.464889,0.539556,0.570667,0.626667,0.670222,0.688889,0.72,0.744889,0.757333,0.769778,0.797778,0.807111,0.825778,0.844444,0.853778,0.866222,0.878667,0.888,0.900444,0.916,0.922222,0.931556,0.940889,0.944,0.950222,0.956444,0.959556,0.959556,0.959556,0.962667,0.962667,0.965778,0.965778,0.968889,0.968889,0.972,0.972,0.972,0.975111,0.975111,0.975111,0.975111,0.972,0.965778,0.959556,0.940889,0.909778,0.863111,0.835111,0.766667,0.726222,0.639111,0.539556,0.436889,0.384,0.281333,0.231556,0.141333,0.066667,0.035556,-0.014222,-0.051556,-0.064,-0.082667,-0.092,-0.092,-0.092,-0.085778,-0.082667,-0.076444,-0.076444,-0.076444,-0.076444,-0.076444,-0.076444,-0.076444,-0.076444,-0.079556,-0.079556,-0.079556,-0.079556,-0.079556,-0.079556,-0.073333,-0.070222,-0.064,-0.064,-0.060889,-0.057778,-0.057778,-0.057778,-0.057778,-0.057778,-0.057778,-0.057778,-0.057778,-0.057778,-0.057778,-0.057778,-0.057778,-0.057778,-0.057778,-0.057778,-0.057778,-0.057778,-0.057778,-0.057778,-0.057778,-0.057778,-0.057778,-0.057778,-0.057778,-0.057778,-0.057778,-0.057778,-0.057778,-0.057778,-0.057778,-0.057778,-0.057778,-0.057778,-0.057778,-0.057778,-0.057778,-0.057778,-0.057778,-0.054667,-0.048444,-0.039111]","[0.0004,0.0198,0.0323,0.0488,0.0651,0.0825,0.0987,0.1156,0.1322,0.1488,0.1654,0.182,0.1992,0.2157,0.2319,0.2485,0.2657,0.2822,0.2992,0.3158,0.3324,0.3486,0.3647,0.382,0.3995,0.4161,0.4328,0.4496,0.4654,0.4822,0.4988,0.5156,0.533,0.5488,0.5657,0.5823,0.5992,0.6159,0.6326,0.649,0.6658,0.6825,0.6991,0.7158,0.7325,0.7492,0.7659,0.7827,0.7992,0.816,0.8328,0.8494,0.866,0.8827,0.8994,0.916,0.9327,0.9494,0.9663,0.9829,1.0001,1.0164,1.0328,1.0498,1.0664,1.083,1.0995,1.1161,1.1329,1.1498,1.1663,1.1829,1.1994,1.2162,1.2329,1.2497,1.2665,1.2831,1.2998,1.3165,1.333,1.3501,1.3666,1.3834,1.3998,1.4165,1.4335,1.4509,1.4669,1.4832,1.5,1.5167,1.5337,1.5501,1.5667,1.5836,1.6,1.6167,1.6337,1.6504,1.6664,1.6833,1.6998,1.7168,1.7338,1.7501,1.7668,1.7836,1.8003,1.8176,1.834,1.8505,1.8667,1.8836,1.9,1.9168,1.9338,1.9502,1.9669,1.9837,2.0004,2.0169,2.0335,2.0503,2.0672,2.0834,2.0998,2.1162,2.1335,2.1497,2.167,2.1831,2.1998,2.217,2.2337,2.2499,2.2669,2.2839,2.2994,2.3167,2.3332,2.3507,2.3668,2.3839,2.3997,2.4171,2.4337,2.4508,2.4668,2.4832,2.5007,2.5169,2.5333,2.5501,2.567,2.5841,2.6007,2.6168,2.6338,2.6505,2.6669,2.6844,2.7003,2.7172]","[1,1,1,1,1,1,1,1,1,1,1,1,1,1,1,1,1,1,1,1,1,1,1,1,1,1,1,1,1,1,1,1,1,1,1,1,1,1,1,1,1,1,1,1,1,1,1,1,1,1,1,1,1,1,1,1,1,1,2,2,2,2,2,2,2,2,2,2,2,2,2,2,2,2,2,2,2,2,2,2,2,2,2,2,2,2,2,2,2,2,2,2,2,2,2,2,2,2,2,2,2,2,2,2,2,2,2,2,2,2,2,2,2,2,2,2,2,2,2,2,2,2,2,2,2,2,2,2,2,2,2,2,2,2,2,2,2,2,2,2,2,2,2,2,2,2,2,2,2,2,2,2,2,2,2,2,2,2,2,2,2,2,2,2]",1,13.6287,4,0,0,0,0,1,5068,1,SV_6SxWlNLsoRj8nqK,304B,2022-09-27_09h51.54.606,implicit_time,2021.1.4,Linux x86_64,59.95563283
control,97.5,0,0,10,NA,0,NA,0,0,0.5,FALSE,practice,0,"[-0.00625,-0.00625,-0.00625,-0.00625,-0.00625,-0.00625,-0.00625,-0.00625,-0.00625,-0.00625,-0.00625,-0.00625,-0.00625,-0.00625,-0.00625,-0.00625,-0.00625,-0.00625,-0.00625,-0.00625,-0.00625,-0.00625,-0.00625,-0.00625,-0.0125,-0.020833,-0.022917,-0.025,-0.025,-0.025,-0.025,-0.022917,-0.020833,-0.01875,-0.01875,-0.01875,-0.01875,-0.020833,-0.022917,-0.029167,-0.033333,-0.0375,-0.039583,-0.041667,-0.041667,-0.041667,-0.039583,-0.0375,-0.033333,-0.03125,-0.03125,-0.03125,-0.03125,-0.03125,-0.029167,-0.03125,-0.03125,-0.033333,-0.033333,-0.035417,-0.035417,-0.035417,-0.035417,-0.0375,-0.0375,-0.039583,-0.05,-0.058333,-0.075,-0.089583,-0.097917,-0.1,-0.102083,-0.1,-0.095833,-0.0875,-0.08125,-0.072917,-0.064583,-0.060417,-0.058333,-0.05625,-0.05625,-0.05625,-0.05625,-0.05625,-0.058333,-0.058333,-0.058333,-0.058333,-0.05625,-0.054167,-0.045833,-0.0375,-0.029167]","[0.007556,0.007556,0.007556,0.007556,0.007556,0.007556,0.007556,0.007556,0.007556,0.007556,0.007556,0.007556,0.007556,0.007556,0.007556,0.007556,0.007556,0.007556,0.007556,0.007556,0.007556,0.007556,0.007556,0.007556,0.023111,0.060444,0.091556,0.172444,0.222222,0.331111,0.449333,0.561333,0.617333,0.716889,0.763556,0.844444,0.906667,0.950222,0.965778,0.984444,0.990667,1,1.003111,1.003111,1.003111,1.003111,1.006222,1.015556,1.024889,1.028,1.028,1.024889,1.024889,1.024889,1.024889,1.024889,1.024889,1.021778,1.021778,1.021778,1.021778,1.024889,1.024889,1.024889,1.021778,0.993778,0.912889,0.856889,0.723111,0.58,0.446222,0.387111,0.281333,0.237778,0.166222,0.113333,0.094667,0.066667,0.051111,0.044889,0.038667,0.038667,0.038667,0.038667,0.038667,0.038667,0.041778,0.041778,0.041778,0.041778,0.038667,0.038667,0.032444,0.029333,0.026222]","[0.0005,0.0164,0.0329,0.0497,0.0665,0.0829,0.0996,0.1164,0.1325,0.1497,0.166,0.1828,0.199,0.2167,0.2327,0.25,0.266,0.2833,0.2994,0.3165,0.3329,0.35,0.3668,0.3833,0.4,0.4168,0.4339,0.4501,0.4668,0.4835,0.5002,0.5168,0.5336,0.5504,0.567,0.5839,0.6004,0.6172,0.6346,0.6508,0.6677,0.6837,0.7002,0.7172,0.7341,0.751,0.7674,0.7836,0.8007,0.8175,0.8338,0.851,0.867,0.8838,0.9006,0.917,0.9341,0.9508,0.9675,0.9841,1.0003,1.0172,1.0338,1.0512,1.0674,1.0839,1.101,1.1179,1.1339,1.151,1.1683,1.1844,1.2009,1.2174,1.2342,1.2506,1.2674,1.2843,1.3007,1.3184,1.3334,1.3508,1.3676,1.384,1.4007,1.4175,1.4336,1.4514,1.4678,1.4842,1.501,1.5178,1.5345,1.5503,1.568]","[1,1,1,1,1,1,1,1,1,1,1,1,1,1,1,1,1,1,1,1,1,1,1,1,1,1,1,1,1,1,1,1,1,1,1,1,1,1,2,2,2,2,2,2,2,2,2,2,2,2,2,2,2,2,2,2,2,2,2,2,2,2,2,2,2,2,2,2,2,2,2,2,2,2,2,2,2,2,2,2,2,2,2,2,2,2,2,2,2,2,2,2,2,2,2]",1,15.7133,4,1,0,1,0,1,5068,1,SV_6SxWlNLsoRj8nqK,304B,2022-09-27_09h51.54.606,implicit_time,2021.1.4,Linux x86_64,59.95563283
control,135,0,0,10,NA,0,NA,0,1,0.5,FALSE,practice,1,"[-0.00625,-0.00625,-0.00625,-0.00625,-0.00625,-0.00625,-0.00625,-0.00625,-0.00625,-0.00625,-0.00625,-0.00625,-0.00625,-0.00625,-0.00625,-0.00625,-0.00625,-0.00625,-0.00625,-0.00625,-0.00625,-0.00625,-0.008333,-0.016667,-0.035417,-0.066667,-0.083333,-0.11875,-0.135417,-0.172917,-0.2125,-0.254167,-0.275,-0.316667,-0.358333,-0.38125,-0.425,-0.466667,-0.485417,-0.535417,-0.55,-0.5625,-0.589583,-0.616667,-0.627083,-0.65,-0.672917,-0.685417,-0.708333,-0.729167,-0.7375,-0.758333,-0.772917,-0.779167,-0.789583,-0.797917,-0.8,-0.8,-0.8,-0.8,-0.8,-0.795833,-0.795833,-0.791667,-0.789583,-0.789583,-0.783333,-0.772917,-0.764583,-0.74375,-0.7125,-0.69375,-0.645833,-0.620833,-0.5625,-0.5,-0.435417,-0.402083,-0.339583,-0.308333,-0.25,-0.19375,-0.141667,-0.11875,-0.075,-0.054167,-0.022917,0.004167,0.020833,0.027083,0.035417,0.0375,0.039583,0.039583,0.041667,0.04375,0.045833,0.047917,0.05,0.054167,0.058333,0.060417,0.0625,0.0625,0.0625,0.060417,0.05625,0.052083,0.04375,0.039583]","[0.004444,0.004444,0.004444,0.004444,0.004444,0.004444,0.004444,0.004444,0.004444,0.004444,0.004444,0.004444,0.004444,0.004444,0.004444,0.004444,0.004444,0.004444,0.004444,0.004444,0.004444,0.004444,0.004444,0.007556,0.026222,0.060444,0.085333,0.141333,0.175556,0.247111,0.321778,0.396444,0.430667,0.496,0.552,0.576889,0.617333,0.648444,0.664,0.701333,0.710667,0.72,0.735556,0.748,0.751111,0.760444,0.766667,0.769778,0.772889,0.776,0.772889,0.769778,0.760444,0.757333,0.748,0.741778,0.738667,0.738667,0.738667,0.738667,0.738667,0.738667,0.738667,0.738667,0.738667,0.738667,0.735556,0.729333,0.723111,0.707556,0.676444,0.660889,0.614222,0.589333,0.530222,0.468,0.402667,0.371556,0.312444,0.284444,0.231556,0.184889,0.147556,0.132,0.107111,0.097778,0.082222,0.069778,0.063556,0.060444,0.057333,0.054222,0.054222,0.054222,0.048,0.041778,0.032444,0.029333,0.02,0.013778,0.010667,0.007556,0.004444,0.004444,0.004444,0.004444,0.004444,0.007556,0.007556,0.010667]","[0.0006,0.0164,0.0351,0.045,0.0613,0.0782,0.0947,0.1123,0.1281,0.1447,0.1616,0.1787,0.195,0.2121,0.2284,0.2453,0.2616,0.2784,0.2954,0.3122,0.329,0.3461,0.3626,0.3792,0.3961,0.4125,0.4293,0.4458,0.4624,0.4792,0.496,0.5127,0.5288,0.5457,0.5626,0.5794,0.5956,0.6125,0.6289,0.6561,0.6684,0.6791,0.6961,0.7123,0.73,0.7463,0.7626,0.779,0.796,0.8128,0.8291,0.8458,0.8628,0.8792,0.8959,0.9126,0.9294,0.946,0.9629,0.9793,0.9964,1.0131,1.0295,1.0459,1.063,1.0794,1.0959,1.1131,1.1295,1.1462,1.163,1.1795,1.1962,1.213,1.2296,1.2465,1.263,1.2796,1.2965,1.3134,1.33,1.3463,1.3652,1.3793,1.3969,1.4132,1.43,1.4464,1.4632,1.4798,1.4964,1.5125,1.5301,1.5466,1.5626,1.5795,1.5962,1.6134,1.6301,1.6462,1.6629,1.6796,1.6963,1.7129,1.7302,1.7463,1.764,1.7805,1.7962,1.8132]","[1,1,1,1,1,1,1,1,1,1,1,1,1,1,1,1,1,1,1,1,1,1,1,1,1,1,1,1,1,1,1,1,1,1,1,1,1,1,1,1,1,1,1,2,2,2,2,2,2,2,2,2,2,2,2,2,2,2,2,2,2,2,2,2,2,2,2,2,2,2,2,2,2,2,2,2,2,2,2,2,2,2,2,2,2,2,2,2,2,2,2,2,2,2,2,2,2,2,2,2,2,2,2,2,2,2,2,2,2,2]",2,18.0478,4,2,0,2,0,1,5068,1,SV_6SxWlNLsoRj8nqK,304B,2022-09-27_09h51.54.606,implicit_time,2021.1.4,Linux x86_64,59.95563283
control,127.5,0,0,10,NA,0,NA,0,0,0.5,FALSE,practice,0,"[0.004167,0.004167,0.004167,0.004167,0.004167,0.004167,0.004167,0.004167,0.004167,0.004167,0.004167,0.004167,0.004167,0.004167,0.004167,0.004167,0.004167,0.004167,0.004167,0.004167,0.004167,0.002083,-0.002083,-0.008333,-0.025,-0.05,-0.064583,-0.097917,-0.133333,-0.152083,-0.189583,-0.23125,-0.252083,-0.29375,-0.335417,-0.354167,-0.389583,-0.41875,-0.43125,-0.454167,-0.470833,-0.477083,-0.4875,-0.49375,-0.497917,-0.502083,-0.504167,-0.510417,-0.5125,-0.520833,-0.527083,-0.539583,-0.554167,-0.570833,-0.577083,-0.585417,-0.585417,-0.585417,-0.585417,-0.585417,-0.585417,-0.583333,-0.583333,-0.583333,-0.583333,-0.583333,-0.585417,-0.585417,-0.585417,-0.58125,-0.577083,-0.558333,-0.535417,-0.508333,-0.49375,-0.4625,-0.429167,-0.410417,-0.372917,-0.3375,-0.320833,-0.2875,-0.270833,-0.241667,-0.214583,-0.19375,-0.183333,-0.16875,-0.1625,-0.154167,-0.15,-0.147917,-0.147917,-0.147917,-0.147917,-0.15,-0.152083,-0.154167,-0.154167,-0.152083,-0.152083,-0.145833,-0.133333,-0.11875,-0.110417,-0.09375,-0.0875,-0.075,-0.064583,-0.054167,-0.05,-0.041667,-0.0375]","[0.007556,0.007556,0.007556,0.007556,0.007556,0.007556,0.007556,0.007556,0.007556,0.007556,0.007556,0.007556,0.007556,0.007556,0.007556,0.007556,0.007556,0.007556,0.007556,0.007556,0.007556,0.007556,0.010667,0.016889,0.032444,0.063556,0.082222,0.132,0.191111,0.222222,0.293778,0.368444,0.405778,0.480444,0.545778,0.573778,0.626667,0.673333,0.688889,0.72,0.738667,0.748,0.760444,0.769778,0.772889,0.782222,0.791556,0.800889,0.807111,0.822667,0.828889,0.844444,0.86,0.875556,0.881778,0.888,0.888,0.888,0.888,0.888,0.888,0.888,0.888,0.888,0.888,0.888,0.888,0.888,0.888,0.881778,0.872444,0.835111,0.772889,0.698222,0.657778,0.573778,0.492889,0.452444,0.377778,0.309333,0.275111,0.222222,0.200444,0.166222,0.141333,0.122667,0.116444,0.104,0.097778,0.091556,0.088444,0.088444,0.088444,0.088444,0.085333,0.085333,0.085333,0.082222,0.082222,0.082222,0.079111,0.076,0.066667,0.057333,0.051111,0.041778,0.038667,0.029333,0.023111,0.016889,0.013778,0.010667,0.007556]","[0.0007,0.0162,0.0323,0.0491,0.0664,0.0825,0.0997,0.1158,0.1331,0.1499,0.1666,0.1827,0.1994,0.2165,0.2327,0.2494,0.2659,0.2833,0.2995,0.3171,0.3336,0.3498,0.3666,0.3832,0.4,0.4168,0.4335,0.4511,0.467,0.4836,0.5003,0.517,0.5335,0.5509,0.5667,0.5834,0.6003,0.6167,0.6345,0.6501,0.6668,0.6834,0.7004,0.7174,0.734,0.7503,0.7671,0.784,0.8006,0.8173,0.8332,0.8505,0.8675,0.8842,0.9005,0.9175,0.9341,0.9505,0.9667,0.9836,1.0003,1.017,1.034,1.0506,1.0673,1.0837,1.1003,1.1174,1.1337,1.1502,1.1676,1.1844,1.2011,1.2177,1.2336,1.2511,1.2693,1.2843,1.301,1.3172,1.3341,1.3505,1.3677,1.3842,1.401,1.4176,1.4335,1.4512,1.4676,1.4843,1.5002,1.5171,1.5337,1.5504,1.5679,1.5837,1.6005,1.617,1.6338,1.6506,1.6673,1.684,1.7006,1.7173,1.7339,1.7506,1.7674,1.784,1.8009,1.8173,1.8342,1.8508,1.8675]","[1,1,1,1,1,1,1,1,1,1,1,1,1,1,1,1,1,1,1,1,1,1,1,1,1,1,1,1,1,1,1,1,1,1,1,1,1,1,1,1,1,1,1,1,1,1,1,1,1,2,2,2,2,2,2,2,2,2,2,2,2,2,2,2,2,2,2,2,2,2,2,2,2,2,2,2,2,2,2,2,2,2,2,2,2,2,2,2,2,2,2,2,2,2,2,2,2,2,2,2,2,2,2,2,2,2,2,2,2,2,2,2,2]",2,20.4326,4,3,0,3,0,1,5068,1,SV_6SxWlNLsoRj8nqK,304B,2022-09-27_09h51.54.606,implicit_time,2021.1.4,Linux x86_64,59.95563283
control,75,0,0,10,NA,0,NA,0,1,0.5,FALSE,practice,1,"[-0.004167,-0.004167,-0.004167,-0.004167,-0.004167,-0.004167,-0.004167,-0.004167,-0.004167,-0.004167,-0.004167,-0.004167,-0.004167,-0.004167,-0.004167,-0.004167,-0.004167,-0.004167,-0.004167,-0.004167,-0.004167,-0.004167,-0.002083,0.002083,0.008333,0.025,0.0375,0.06875,0.108333,0.154167,0.179167,0.229167,0.252083,0.297917,0.341667,0.379167,0.395833,0.422917,0.433333,0.452083,0.464583,0.477083,0.48125,0.489583,0.489583,0.489583,0.483333,0.470833,0.4625,0.44375,0.433333,0.4125,0.39375,0.377083,0.370833,0.360417,0.35625,0.35,0.345833,0.345833,0.34375,0.34375,0.34375,0.34375,0.341667,0.341667,0.333333,0.31875,0.30625,0.275,0.233333,0.210417,0.1625,0.116667,0.095833,0.05625,0.020833,0.004167,-0.025,-0.05,-0.058333,-0.077083,-0.091667,-0.097917,-0.110417,-0.11875,-0.122917,-0.125,-0.127083,-0.125,-0.120833,-0.114583,-0.108333,-0.097917,-0.0875,-0.08125,-0.070833,-0.060417,-0.05625,-0.045833,-0.039583,-0.035417,-0.029167,-0.022917,-0.01875,-0.0125,-0.002083,0.002083,0.0125,0.01875,0.020833,0.022917,0.025,0.025,0.025,0.025,0.025,0.025,0.022917,0.022917,0.022917,0.020833]","[-0.008,-0.008,-0.008,-0.008,-0.008,-0.008,-0.008,-0.008,-0.008,-0.008,-0.008,-0.008,-0.008,-0.008,-0.008,-0.008,-0.008,-0.008,-0.008,-0.008,-0.008,-0.008,-0.001778,0.013778,0.029333,0.072889,0.100889,0.169333,0.250222,0.334222,0.377778,0.458667,0.499111,0.570667,0.639111,0.695111,0.72,0.763556,0.782222,0.816444,0.841333,0.866222,0.875556,0.897333,0.903556,0.909778,0.912889,0.919111,0.922222,0.931556,0.931556,0.934667,0.937778,0.940889,0.944,0.947111,0.950222,0.956444,0.959556,0.962667,0.962667,0.962667,0.962667,0.962667,0.956444,0.950222,0.931556,0.903556,0.881778,0.828889,0.766667,0.735556,0.664,0.595556,0.561333,0.499111,0.443111,0.418222,0.371556,0.334222,0.318667,0.287556,0.256444,0.240889,0.209778,0.181778,0.169333,0.144444,0.119556,0.107111,0.088444,0.076,0.072889,0.060444,0.048,0.044889,0.032444,0.02,0.013778,-0.004889,-0.020444,-0.026667,-0.039111,-0.048444,-0.051556,-0.054667,-0.054667,-0.051556,-0.045333,-0.042222,-0.042222,-0.039111,-0.039111,-0.039111,-0.039111,-0.039111,-0.039111,-0.036,-0.036,-0.036,-0.036,-0.036]","[0.0006,0.0169,0.0327,0.0493,0.0661,0.0827,0.0995,0.1167,0.1335,0.1494,0.1663,0.1829,0.2001,0.2162,0.2329,0.2498,0.2661,0.283,0.2998,0.3169,0.3327,0.3502,0.3669,0.3833,0.3999,0.4164,0.4337,0.45,0.4675,0.4836,0.4998,0.5179,0.5335,0.55,0.5666,0.5833,0.6,0.6166,0.6334,0.6501,0.6668,0.6856,0.7003,0.7169,0.7334,0.75,0.7667,0.7834,0.8,0.8168,0.8334,0.8501,0.8668,0.8834,0.9009,0.9178,0.9335,0.9505,0.9671,0.9837,1.0004,1.017,1.0339,1.0507,1.0671,1.0837,1.1006,1.117,1.134,1.1502,1.1678,1.1836,1.2078,1.2245,1.2361,1.253,1.2681,1.2844,1.3011,1.3171,1.3339,1.3506,1.3674,1.384,1.4009,1.4172,1.434,1.4506,1.4673,1.484,1.5006,1.5174,1.534,1.5507,1.5673,1.5839,1.6017,1.6175,1.6342,1.6508,1.6674,1.6844,1.7009,1.7174,1.7341,1.7511,1.7675,1.7841,1.8011,1.8176,1.8343,1.8512,1.8676,1.8844,1.9011,1.9175,1.9339,1.9512,1.9677,1.9844,2.0012,2.0185]","[1,1,1,1,1,1,1,1,1,1,1,1,1,1,1,1,1,1,1,1,1,1,1,1,1,1,1,1,1,1,1,1,1,1,1,1,1,1,1,1,2,2,2,2,2,2,2,2,2,2,2,2,2,2,2,2,2,2,2,2,2,2,2,2,2,2,2,2,2,2,2,2,2,2,2,2,2,2,2,2,2,2,2,2,2,2,2,2,2,2,2,2,2,2,2,2,2,2,2,2,2,2,2,2,2,2,2,2,2,2,2,2,2,2,2,2,2,2,2,2,2,2]",3,22.9686,4,4,0,4,0,1,5068,1,SV_6SxWlNLsoRj8nqK,304B,2022-09-27_09h51.54.606,implicit_time,2021.1.4,Linux x86_64,59.95563283
control,82.5,0,0,10,NA,0,NA,0,0,0.5,FALSE,practice,0,"[0.016667,0.016667,0.016667,0.016667,0.016667,0.016667,0.014583,0.014583,0.014583,0.014583,0.014583,0.014583,0.014583,0.0125,0.010417,0.008333,0.00625,0.00625,0.00625,0.00625,0.00625,0.00625,0.00625,0.00625,0.00625,0.010417,0.020833,0.027083,0.045833,0.06875,0.08125,0.10625,0.13125,0.141667,0.1625,0.183333,0.191667,0.20625,0.21875,0.225,0.227083,0.229167,0.229167,0.227083,0.227083,0.227083,0.227083,0.23125,0.233333,0.235417,0.235417,0.235417,0.235417,0.23125,0.229167,0.222917,0.220833,0.21875,0.21875,0.21875,0.21875,0.21875,0.21875,0.21875,0.220833,0.220833,0.220833,0.222917,0.225,0.229167,0.233333,0.235417,0.235417,0.2375,0.2375,0.235417,0.222917,0.19375,0.175,0.13125,0.108333,0.064583,0.020833,-0.01875,-0.035417,-0.064583,-0.077083,-0.097917,-0.1125,-0.125,-0.127083,-0.133333,-0.133333,-0.135417,-0.135417,-0.1375,-0.1375,-0.1375,-0.1375,-0.1375,-0.1375,-0.135417,-0.133333,-0.129167,-0.127083,-0.11875,-0.1125,-0.104167,-0.1,-0.089583,-0.085417,-0.077083,-0.06875,-0.05625,-0.052083,-0.041667,-0.035417,-0.027083]","[-0.032889,-0.032889,-0.032889,-0.032889,-0.032889,-0.032889,-0.032889,-0.032889,-0.032889,-0.032889,-0.032889,-0.032889,-0.032889,-0.029778,-0.029778,-0.029778,-0.026667,-0.026667,-0.026667,-0.026667,-0.026667,-0.026667,-0.026667,-0.023556,-0.014222,0.016889,0.066667,0.100889,0.178667,0.265778,0.312444,0.402667,0.489778,0.530222,0.601778,0.670222,0.701333,0.757333,0.804,0.844444,0.86,0.891111,0.903556,0.925333,0.934667,0.950222,0.965778,0.984444,0.993778,1,1,1,1,1,1,1,1,1.003111,1.003111,1.003111,1.003111,1.003111,1.003111,1.003111,1.003111,1.003111,1.003111,1.006222,1.006222,1.006222,1.006222,1.009333,1.009333,1.009333,1.009333,1.009333,1,0.959556,0.922222,0.825778,0.772889,0.654667,0.542667,0.44,0.393333,0.306222,0.265778,0.200444,0.150667,0.113333,0.100889,0.082222,0.076,0.066667,0.063556,0.060444,0.060444,0.057333,0.057333,0.057333,0.057333,0.054222,0.051111,0.051111,0.051111,0.051111,0.051111,0.051111,0.051111,0.051111,0.051111,0.051111,0.048,0.041778,0.038667,0.032444,0.029333,0.026222]","[0.001,0.0172,0.0331,0.0495,0.0665,0.083,0.0999,0.1164,0.1335,0.1499,0.1667,0.1833,0.2,0.2168,0.2334,0.25,0.2671,0.2836,0.3,0.3168,0.3334,0.3494,0.3669,0.3836,0.4004,0.4171,0.4338,0.4508,0.4676,0.4842,0.5007,0.5176,0.5354,0.5509,0.5677,0.5844,0.6012,0.618,0.6344,0.6518,0.6678,0.6847,0.7011,0.7181,0.7345,0.7513,0.7692,0.7845,0.8013,0.8181,0.8346,0.851,0.8678,0.8839,0.9011,0.918,0.9346,0.9513,0.9681,0.984,1.0007,1.0176,1.034,1.0506,1.0678,1.0846,1.1011,1.118,1.1351,1.1515,1.169,1.185,1.2015,1.2181,1.2351,1.2511,1.2687,1.2852,1.3017,1.3187,1.3351,1.3521,1.3686,1.385,1.4017,1.4187,1.4348,1.4517,1.4682,1.485,1.5017,1.5184,1.535,1.5518,1.5683,1.5849,1.601,1.6183,1.6354,1.6518,1.6684,1.6849,1.7018,1.7187,1.7352,1.752,1.7686,1.7851,1.8018,1.8187,1.8353,1.852,1.8688,1.8854,1.9019,1.9193,1.9354,1.9523]","[1,1,1,1,1,1,1,1,1,1,1,1,1,1,1,1,1,1,1,1,1,1,1,1,1,1,1,1,1,1,1,1,1,1,1,1,1,1,1,1,1,1,1,1,2,2,2,2,2,2,2,2,2,2,2,2,2,2,2,2,2,2,2,2,2,2,2,2,2,2,2,2,2,2,2,2,2,2,2,2,2,2,2,2,2,2,2,2,2,2,2,2,2,2,2,2,2,2,2,2,2,2,2,2,2,2,2,2,2,2,2,2,2,2,2,2,2,2]",3,25.4378,4,5,0,5,0,1,5068,1,SV_6SxWlNLsoRj8nqK,304B,2022-09-27_09h51.54.606,implicit_time,2021.1.4,Linux x86_64,59.95563283
control,45,0,0,10,NA,0,NA,0,1,0.5,FALSE,practice,1,"[0.0125,0.0125,0.0125,0.0125,0.0125,0.0125,0.0125,0.0125,0.0125,0.0125,0.0125,0.0125,0.0125,0.0125,0.0125,0.0125,0.0125,0.0125,0.0125,0.0125,0.0125,0.0125,0.0125,0.0125,0.016667,0.020833,0.041667,0.083333,0.147917,0.229167,0.272917,0.316667,0.404167,0.491667,0.572917,0.60625,0.6625,0.683333,0.714583,0.735417,0.74375,0.754167,0.758333,0.760417,0.7625,0.7625,0.764583,0.76875,0.775,0.779167,0.78125,0.779167,0.777083,0.775,0.772917,0.770833,0.76875,0.766667,0.764583,0.764583,0.764583,0.764583,0.764583,0.764583,0.764583,0.760417,0.745833,0.73125,0.691667,0.6375,0.60625,0.535417,0.460417,0.420833,0.345833,0.279167,0.25,0.197917,0.154167,0.133333,0.102083,0.079167,0.070833,0.05625,0.045833,0.035417,0.03125,0.022917,0.020833,0.010417,-0.004167,-0.022917,-0.03125,-0.05,-0.058333,-0.075,-0.0875,-0.095833,-0.097917,-0.1,-0.1,-0.09375,-0.083333,-0.072917,-0.066667,-0.05625,-0.052083,-0.04375,-0.039583,-0.033333]","[0.004444,0.004444,0.004444,0.004444,0.004444,0.004444,0.004444,0.004444,0.004444,0.004444,0.004444,0.004444,0.004444,0.004444,0.004444,0.004444,0.004444,0.004444,0.004444,0.004444,0.004444,0.004444,0.004444,0.004444,0.007556,0.010667,0.029333,0.066667,0.125778,0.200444,0.237778,0.275111,0.346667,0.415111,0.474222,0.499111,0.539556,0.552,0.573778,0.586222,0.592444,0.598667,0.601778,0.604889,0.614222,0.629778,0.636,0.654667,0.670222,0.679556,0.685778,0.688889,0.688889,0.692,0.695111,0.695111,0.695111,0.695111,0.695111,0.695111,0.695111,0.695111,0.695111,0.695111,0.695111,0.692,0.679556,0.670222,0.639111,0.595556,0.570667,0.517778,0.461778,0.433778,0.380889,0.337333,0.318667,0.287556,0.265778,0.256444,0.247111,0.240889,0.237778,0.237778,0.231556,0.225333,0.222222,0.206667,0.200444,0.178667,0.153778,0.125778,0.107111,0.079111,0.063556,0.041778,0.023111,0.010667,0.007556,0.004444,0.004444,0.004444,0.010667,0.016889,0.02,0.023111,0.023111,0.023111,0.023111,0.02]","[0.0008,0.0168,0.0331,0.0499,0.0659,0.0831,0.1013,0.1163,0.1333,0.1501,0.166,0.1834,0.2,0.2162,0.2333,0.2495,0.2668,0.2827,0.299,0.3166,0.3333,0.3503,0.3666,0.3833,0.4004,0.417,0.4336,0.4505,0.4669,0.4866,0.5015,0.5173,0.5339,0.5505,0.567,0.5836,0.6006,0.617,0.634,0.6507,0.6671,0.6837,0.7031,0.7175,0.7339,0.7508,0.7675,0.784,0.8006,0.8175,0.8342,0.8508,0.8677,0.8842,0.9007,0.9177,0.9341,0.9509,0.9677,0.9843,1.0009,1.0178,1.0336,1.0511,1.0677,1.0843,1.1011,1.1179,1.1343,1.1512,1.168,1.1844,1.2011,1.2181,1.2345,1.2512,1.2681,1.2864,1.3018,1.3184,1.3348,1.3517,1.3683,1.3849,1.4017,1.4184,1.4348,1.4516,1.4685,1.4851,1.5019,1.5185,1.5349,1.5517,1.5685,1.5851,1.6017,1.6188,1.635,1.6518,1.6684,1.6853,1.702,1.7187,1.7351,1.7519,1.7686,1.7854,1.8024,1.8187]","[1,1,1,1,1,1,1,1,1,1,1,1,1,1,1,1,1,1,1,1,1,1,1,1,1,1,1,1,1,1,1,1,1,1,1,1,1,1,1,1,1,2,2,2,2,2,2,2,2,2,2,2,2,2,2,2,2,2,2,2,2,2,2,2,2,2,2,2,2,2,2,2,2,2,2,2,2,2,2,2,2,2,2,2,2,2,2,2,2,2,2,2,2,2,2,2,2,2,2,2,2,2,2,2,2,2,2,2,2,2]",4,27.7739,4,6,0,6,0,1,5068,1,SV_6SxWlNLsoRj8nqK,304B,2022-09-27_09h51.54.606,implicit_time,2021.1.4,Linux x86_64,59.95563283
control,52.5,0,0,10,NA,0,NA,0,0,0.5,FALSE,practice,0,"[-0.016667,-0.016667,-0.016667,-0.016667,-0.016667,-0.016667,-0.016667,-0.016667,-0.016667,-0.016667,-0.016667,-0.016667,-0.016667,-0.016667,-0.016667,-0.016667,-0.016667,-0.016667,-0.016667,-0.016667,-0.016667,-0.016667,-0.016667,-0.016667,-0.016667,-0.016667,-0.016667,-0.0125,0.004167,0.020833,0.077083,0.15625,0.252083,0.304167,0.40625,0.45625,0.545833,0.583333,0.641667,0.672917,0.68125,0.68125,0.68125,0.68125,0.679167,0.675,0.670833,0.670833,0.66875,0.66875,0.666667,0.666667,0.666667,0.666667,0.666667,0.666667,0.666667,0.666667,0.666667,0.666667,0.66875,0.66875,0.664583,0.645833,0.602083,0.570833,0.5,0.4625,0.38125,0.302083,0.227083,0.19375,0.129167,0.102083,0.052083,0.008333]","[-0.001778,-0.001778,-0.001778,-0.001778,-0.001778,-0.001778,-0.001778,-0.001778,-0.001778,-0.001778,-0.001778,-0.001778,-0.001778,-0.001778,-0.001778,-0.001778,-0.001778,-0.001778,-0.001778,-0.001778,-0.001778,-0.001778,-0.001778,-0.001778,-0.001778,-0.001778,-0.001778,0.004444,0.035556,0.060444,0.141333,0.244,0.356,0.415111,0.524,0.573778,0.664,0.698222,0.751111,0.776,0.779111,0.779111,0.779111,0.779111,0.785333,0.788444,0.791556,0.794667,0.794667,0.794667,0.794667,0.794667,0.794667,0.794667,0.794667,0.794667,0.794667,0.794667,0.791556,0.794667,0.794667,0.794667,0.788444,0.760444,0.710667,0.676444,0.601778,0.558222,0.471111,0.380889,0.293778,0.253333,0.178667,0.147556,0.088444,0.038667]","[0.0006,0.0173,0.0329,0.05,0.0666,0.0827,0.0998,0.1165,0.1334,0.15,0.166,0.1833,0.1999,0.2166,0.2329,0.25,0.2667,0.2834,0.3001,0.3167,0.3337,0.3503,0.3669,0.3834,0.4018,0.4175,0.4338,0.4502,0.4671,0.4837,0.5007,0.5176,0.5342,0.5506,0.5678,0.5844,0.6008,0.6185,0.6346,0.6512,0.6677,0.6859,0.7009,0.7172,0.7342,0.7512,0.7679,0.7849,0.8014,0.8181,0.8344,0.8513,0.8679,0.8842,0.9009,0.9175,0.9345,0.951,0.9675,0.9847,1.0014,1.0179,1.0342,1.0513,1.0682,1.0848,1.1015,1.1184,1.1351,1.1517,1.1682,1.185,1.2012,1.2181,1.2347,1.2512]","[1,1,1,1,1,1,1,1,1,1,1,1,1,1,1,1,1,1,1,1,1,1,1,1,1,1,1,1,1,1,1,1,1,1,1,1,1,1,2,2,2,2,2,2,2,2,2,2,2,2,2,2,2,2,2,2,2,2,2,2,2,2,2,2,2,2,2,2,2,2,2,2,2,2,2,2]",4,29.5424,4,7,0,7,0,1,5068,1,SV_6SxWlNLsoRj8nqK,304B,2022-09-27_09h51.54.606,implicit_time,2021.1.4,Linux x86_64,59.95563283
control,135,0,0,10,NA,0,NA,0,1,0.5,FALSE,practice,1,"[0.004167,0.00625,0.008333,0.008333,0.010417,0.010417,0.010417,0.010417,0.010417,0.010417,0.010417,0.010417,0.010417,0.010417,0.010417,0.010417,0.010417,0.010417,0.010417,0.010417,0.010417,0.010417,0.008333,0.008333,0.008333,0.00625,-0.002083,-0.008333,-0.027083,-0.05,-0.077083,-0.09375,-0.127083,-0.145833,-0.1875,-0.233333,-0.28125,-0.30625,-0.354167,-0.377083,-0.422917,-0.464583,-0.5,-0.51875,-0.55,-0.566667,-0.595833,-0.61875,-0.629167,-0.647917,-0.664583,-0.68125,-0.6875,-0.7,-0.70625,-0.716667,-0.727083,-0.733333,-0.741667,-0.747917,-0.75,-0.752083,-0.754167,-0.754167,-0.754167,-0.752083,-0.75,-0.74375,-0.73125,-0.7125,-0.7,-0.670833,-0.652083,-0.610417,-0.560417,-0.50625,-0.48125,-0.427083,-0.4,-0.347917,-0.297917,-0.254167,-0.235417,-0.197917,-0.18125,-0.152083,-0.127083,-0.108333,-0.1,-0.0875,-0.08125,-0.06875,-0.058333,-0.047917,-0.04375,-0.035417]","[0.007556,0.007556,0.007556,0.007556,0.007556,0.007556,0.007556,0.007556,0.007556,0.007556,0.007556,0.007556,0.007556,0.007556,0.007556,0.007556,0.007556,0.007556,0.007556,0.007556,0.004444,0.004444,0.004444,0.004444,0.004444,0.004444,0.013778,0.02,0.041778,0.079111,0.125778,0.153778,0.206667,0.231556,0.284444,0.337333,0.390222,0.418222,0.468,0.492889,0.539556,0.583111,0.623556,0.642222,0.673333,0.685778,0.704444,0.723111,0.729333,0.741778,0.754222,0.760444,0.763556,0.769778,0.772889,0.776,0.779111,0.779111,0.776,0.776,0.776,0.776,0.776,0.776,0.772889,0.772889,0.769778,0.760444,0.748,0.726222,0.713778,0.676444,0.654667,0.608,0.555111,0.492889,0.458667,0.393333,0.362222,0.3,0.240889,0.184889,0.16,0.119556,0.100889,0.072889,0.054222,0.038667,0.032444,0.023111,0.02,0.013778,0.010667,0.004444,0.001333,-0.001778]","[0.0005,0.017,0.0331,0.0498,0.0666,0.0831,0.0998,0.1165,0.133,0.1498,0.1666,0.1834,0.1998,0.2168,0.2331,0.2499,0.2669,0.2833,0.3,0.3168,0.3334,0.3501,0.3671,0.3834,0.4,0.4171,0.4337,0.4501,0.4675,0.4838,0.5004,0.5171,0.5336,0.5506,0.567,0.5837,0.6004,0.6172,0.6339,0.651,0.6673,0.6838,0.7005,0.7173,0.7339,0.7507,0.7677,0.784,0.8011,0.82,0.8357,0.8514,0.8678,0.8842,0.9008,0.9176,0.9343,0.951,0.9677,0.9845,1.0013,1.0247,1.0348,1.0512,1.0679,1.0844,1.101,1.1179,1.1353,1.1514,1.168,1.1845,1.201,1.2184,1.2347,1.2511,1.2685,1.2848,1.3014,1.3182,1.3349,1.3515,1.3683,1.3848,1.4014,1.4184,1.4349,1.4515,1.4685,1.485,1.5019,1.5192,1.5351,1.5519,1.5686,1.5853]","[1,1,1,1,1,1,1,1,1,1,1,1,1,1,1,1,1,1,1,1,1,1,1,1,1,1,1,1,1,1,1,1,1,1,1,1,1,1,1,1,1,1,1,1,1,1,1,1,2,2,2,2,2,2,2,2,2,2,2,2,2,2,2,2,2,2,2,2,2,2,2,2,2,2,2,2,2,2,2,2,2,2,2,2,2,2,2,2,2,2,2,2,2,2,2,2]",5,32.0956,4,8,0,8,0,1,5068,1,SV_6SxWlNLsoRj8nqK,304B,2022-09-27_09h51.54.606,implicit_time,2021.1.4,Linux x86_64,59.95563283
control,127.5,0,0,10,NA,0,NA,0,0,0.5,FALSE,practice,0,"[-0.004167,-0.004167,-0.004167,-0.004167,-0.004167,-0.004167,-0.004167,-0.004167,-0.004167,-0.004167,-0.004167,-0.004167,-0.004167,-0.004167,-0.004167,-0.004167,-0.004167,-0.004167,-0.004167,-0.004167,-0.004167,-0.004167,-0.004167,-0.004167,-0.00625,-0.010417,-0.01875,-0.022917,-0.0375,-0.05625,-0.06875,-0.095833,-0.125,-0.141667,-0.175,-0.214583,-0.235417,-0.279167,-0.320833,-0.341667,-0.377083,-0.408333,-0.422917,-0.447917,-0.470833,-0.479167,-0.495833,-0.50625,-0.510417,-0.516667,-0.520833,-0.522917,-0.525,-0.529167,-0.529167,-0.533333,-0.535417,-0.535417,-0.533333,-0.533333,-0.533333,-0.533333,-0.533333,-0.533333,-0.535417,-0.535417,-0.535417,-0.527083,-0.504167,-0.489583,-0.460417,-0.429167,-0.414583,-0.38125,-0.345833,-0.327083,-0.285417,-0.241667,-0.21875,-0.172917,-0.13125,-0.110417,-0.072917,-0.039583,-0.025,-0.002083]","[0.001333,0.001333,0.001333,0.001333,0.001333,0.001333,0.001333,0.001333,0.001333,0.001333,0.001333,0.001333,0.001333,0.001333,0.001333,0.001333,0.001333,0.001333,0.001333,0.001333,0.001333,0.001333,0.001333,0.001333,0.004444,0.007556,0.016889,0.026222,0.044889,0.076,0.094667,0.138222,0.194222,0.225333,0.290667,0.359111,0.393333,0.464889,0.536444,0.570667,0.632889,0.685778,0.710667,0.748,0.782222,0.794667,0.816444,0.828889,0.835111,0.844444,0.853778,0.856889,0.869333,0.884889,0.894222,0.906667,0.912889,0.912889,0.912889,0.909778,0.909778,0.909778,0.909778,0.909778,0.909778,0.909778,0.909778,0.903556,0.875556,0.850667,0.785333,0.704444,0.660889,0.570667,0.474222,0.424444,0.337333,0.265778,0.231556,0.175556,0.128889,0.110222,0.079111,0.057333,0.051111,0.038667]","[0.0006,0.0245,0.0344,0.0511,0.0684,0.0832,0.0996,0.1164,0.1336,0.1497,0.1663,0.1827,0.1996,0.2165,0.2334,0.2503,0.2663,0.283,0.2996,0.3172,0.3337,0.3504,0.3671,0.3838,0.4003,0.4172,0.4338,0.4504,0.4672,0.4842,0.5007,0.5179,0.5344,0.5509,0.5677,0.5845,0.6012,0.6179,0.6344,0.6509,0.6679,0.6844,0.7013,0.7182,0.7357,0.751,0.7679,0.7847,0.8026,0.8185,0.8347,0.8516,0.8685,0.8848,0.9014,0.9187,0.936,0.9513,0.968,0.9849,1.0014,1.018,1.0343,1.051,1.0678,1.0849,1.1012,1.1182,1.1351,1.1516,1.1685,1.1853,1.2015,1.2185,1.235,1.2517,1.2686,1.286,1.3019,1.3181,1.3347,1.3512,1.3683,1.3849,1.4017,1.4182]","[1,1,1,1,1,1,1,1,1,1,1,1,1,1,1,1,1,1,1,1,1,1,1,1,1,1,1,1,1,1,1,1,1,1,1,1,1,1,1,1,1,1,1,1,1,1,1,2,2,2,2,2,2,2,2,2,2,2,2,2,2,2,2,2,2,2,2,2,2,2,2,2,2,2,2,2,2,2,2,2,2,2,2,2,2,2]",5,34.4815,4,9,0,9,0,1,5068,1,SV_6SxWlNLsoRj8nqK,304B,2022-09-27_09h51.54.606,implicit_time,2021.1.4,Linux x86_64,59.95563283
control,75,0,0,10,NA,0,NA,0,1,0.5,FALSE,practice,1,"[0,0,0,0,0,0,0,0,0,0,0,-0.002083,-0.002083,-0.002083,-0.002083,-0.002083,-0.002083,-0.002083,-0.002083,0,0,0,-0.002083,-0.002083,-0.002083,0,0.008333,0.016667,0.047917,0.091667,0.141667,0.170833,0.229167,0.260417,0.316667,0.366667,0.408333,0.425,0.452083,0.475,0.483333,0.4875,0.483333,0.479167,0.470833,0.458333,0.452083,0.439583,0.425,0.41875,0.402083,0.3875,0.379167,0.366667,0.360417,0.352083,0.345833,0.341667,0.341667,0.339583,0.3375,0.335417,0.325,0.310417,0.297917,0.26875,0.252083,0.210417,0.164583,0.120833,0.1,0.058333,0.039583,0.004167,-0.027083,-0.052083,-0.0625,-0.077083,-0.08125,-0.0875,-0.089583,-0.085417,-0.083333,-0.079167,-0.075,-0.06875,-0.060417,-0.054167,-0.052083,-0.045833,-0.045833,-0.04375,-0.041667,-0.041667,-0.041667,-0.041667,-0.041667,-0.039583]","[0.007556,0.007556,0.007556,0.007556,0.007556,0.004444,0.001333,-0.001778,-0.004889,-0.004889,-0.004889,-0.004889,-0.004889,-0.004889,-0.004889,-0.004889,-0.004889,-0.004889,-0.004889,-0.004889,-0.004889,-0.004889,-0.008,-0.008,-0.008,-0.004889,0.02,0.044889,0.110222,0.194222,0.290667,0.343556,0.449333,0.499111,0.595556,0.676444,0.748,0.776,0.828889,0.872444,0.888,0.900444,0.900444,0.903556,0.906667,0.912889,0.916,0.922222,0.928444,0.931556,0.937778,0.944,0.947111,0.953333,0.956444,0.959556,0.962667,0.962667,0.962667,0.962667,0.959556,0.947111,0.925333,0.891111,0.869333,0.819556,0.791556,0.723111,0.648444,0.570667,0.533333,0.455556,0.421333,0.346667,0.281333,0.228444,0.206667,0.169333,0.153778,0.128889,0.110222,0.097778,0.094667,0.088444,0.085333,0.082222,0.079111,0.079111,0.076,0.066667,0.063556,0.054222,0.041778,0.029333,0.026222,0.016889,0.013778,0.007556]","[0.0004,0.0226,0.0391,0.0555,0.0724,0.0889,0.1056,0.1222,0.1391,0.1554,0.1722,0.1898,0.2051,0.2216,0.2388,0.2549,0.2717,0.289,0.3055,0.3221,0.3391,0.3557,0.3723,0.389,0.4056,0.4226,0.4397,0.4559,0.4724,0.4893,0.5058,0.5224,0.5396,0.556,0.5726,0.5896,0.6059,0.6228,0.6396,0.656,0.6756,0.6896,0.7062,0.7245,0.7401,0.7564,0.7729,0.7897,0.8062,0.8227,0.84,0.8563,0.8729,0.8898,0.9063,0.9231,0.94,0.9565,0.9731,0.9898,1.0067,1.0232,1.0399,1.0566,1.0732,1.0898,1.1069,1.1233,1.1398,1.1569,1.1733,1.1898,1.2067,1.2235,1.2403,1.2571,1.2732,1.2901,1.3068,1.3234,1.3402,1.3568,1.3735,1.39,1.4073,1.4237,1.4403,1.4573,1.4737,1.4903,1.5071,1.5237,1.5403,1.5571,1.5737,1.5904,1.6076,1.6238]","[1,1,1,1,1,1,1,1,1,1,1,1,1,1,1,1,1,1,1,1,1,1,1,1,1,1,1,1,1,1,1,1,1,1,1,1,1,1,1,2,2,2,2,2,2,2,2,2,2,2,2,2,2,2,2,2,2,2,2,2,2,2,2,2,2,2,2,2,2,2,2,2,2,2,2,2,2,2,2,2,2,2,2,2,2,2,2,2,2,2,2,2,2,2,2,2,2,2]",6,36.6174,4,10,0,10,0,1,5068,1,SV_6SxWlNLsoRj8nqK,304B,2022-09-27_09h51.54.606,implicit_time,2021.1.4,Linux x86_64,59.95563283
control,82.5,0,0,10,NA,0,NA,0,0,0.5,FALSE,practice,0,"[-0.008333,-0.008333,-0.008333,-0.00625,-0.00625,-0.00625,-0.00625,-0.00625,-0.00625,-0.00625,-0.00625,-0.00625,-0.00625,-0.00625,-0.00625,-0.00625,-0.00625,-0.00625,-0.00625,-0.00625,-0.00625,-0.00625,-0.00625,-0.00625,-0.004167,-0.002083,0.008333,0.01875,0.033333,0.041667,0.060417,0.06875,0.085417,0.097917,0.10625,0.108333,0.110417,0.108333,0.10625,0.10625,0.108333,0.110417,0.11875,0.122917,0.13125,0.14375,0.15625,0.1625,0.16875,0.16875,0.16875,0.16875,0.164583,0.1625,0.158333,0.15625,0.15625,0.15625,0.15625,0.15625,0.15625,0.158333,0.15625,0.152083,0.14375,0.120833,0.09375,0.08125,0.054167,0.029167,0.016667,-0.004167,-0.020833,-0.029167,-0.041667,-0.052083,-0.05625,-0.0625,-0.064583,-0.064583,-0.064583,-0.060417,-0.058333,-0.054167,-0.052083,-0.052083,-0.05,-0.047917,-0.047917,-0.047917,-0.045833,-0.045833,-0.04375,-0.041667,-0.039583,-0.035417,-0.03125,-0.027083,-0.022917,-0.01875,-0.01875,-0.016667,-0.016667,-0.014583,-0.014583,-0.014583,-0.0125,-0.0125,-0.0125,-0.0125]","[-0.011111,-0.011111,-0.011111,-0.014222,-0.014222,-0.014222,-0.014222,-0.014222,-0.014222,-0.014222,-0.014222,-0.014222,-0.014222,-0.014222,-0.014222,-0.014222,-0.014222,-0.014222,-0.014222,-0.014222,-0.014222,-0.014222,-0.008,0.001333,0.029333,0.051111,0.107111,0.175556,0.253333,0.293778,0.377778,0.415111,0.486667,0.548889,0.601778,0.623556,0.667111,0.685778,0.72,0.751111,0.785333,0.804,0.841333,0.86,0.897333,0.937778,0.978222,0.993778,1.009333,1.009333,1.006222,1.006222,1.006222,1.006222,1.006222,1.006222,1.006222,1.006222,1.006222,1.009333,1.009333,1.009333,1.012444,1.006222,0.990667,0.940889,0.863111,0.822667,0.732444,0.648444,0.608,0.527111,0.455556,0.421333,0.362222,0.309333,0.284444,0.240889,0.206667,0.191111,0.169333,0.156889,0.150667,0.141333,0.135111,0.128889,0.125778,0.119556,0.119556,0.116444,0.116444,0.113333,0.110222,0.107111,0.104,0.097778,0.091556,0.085333,0.076,0.069778,0.066667,0.063556,0.060444,0.057333,0.054222,0.051111,0.051111,0.048,0.041778,0.038667]","[0.0005,0.0172,0.033,0.0498,0.0665,0.0828,0.0996,0.1165,0.1331,0.1498,0.1669,0.1834,0.1998,0.2165,0.2333,0.25,0.2663,0.283,0.2993,0.316,0.3334,0.3502,0.3668,0.3834,0.4001,0.417,0.4339,0.4506,0.4675,0.4838,0.5007,0.5174,0.534,0.5507,0.5675,0.5841,0.6007,0.6177,0.6341,0.6509,0.6675,0.6845,0.7011,0.7178,0.7344,0.7511,0.7679,0.7856,0.8011,0.8178,0.8343,0.8582,0.8678,0.885,0.9016,0.9185,0.9348,0.9511,0.9678,0.9844,1.0014,1.0179,1.0346,1.0515,1.0683,1.086,1.1015,1.1186,1.1348,1.1514,1.1685,1.1848,1.2014,1.2184,1.2347,1.2516,1.2677,1.2845,1.3009,1.3179,1.3345,1.3514,1.3683,1.3843,1.4011,1.4182,1.4344,1.4512,1.4684,1.4844,1.5012,1.5184,1.535,1.5512,1.5681,1.5845,1.6012,1.6183,1.6347,1.6515,1.6681,1.6849,1.7025,1.7182,1.7348,1.7535,1.7693,1.7854,1.8019,1.8184]","[1,1,1,1,1,1,1,1,1,1,1,1,1,1,1,1,1,1,1,1,1,1,1,1,1,1,1,1,1,1,1,1,1,1,1,1,1,1,1,1,1,1,1,1,1,1,2,2,2,2,2,2,2,2,2,2,2,2,2,2,2,2,2,2,2,2,2,2,2,2,2,2,2,2,2,2,2,2,2,2,2,2,2,2,2,2,2,2,2,2,2,2,2,2,2,2,2,2,2,2,2,2,2,2,2,2,2,2,2,2]",6,38.9535,4,11,0,11,0,1,5068,1,SV_6SxWlNLsoRj8nqK,304B,2022-09-27_09h51.54.606,implicit_time,2021.1.4,Linux x86_64,59.95563283
control,45,0,0,10,NA,0,NA,0,1,0.5,FALSE,practice,1,"[-0.004167,-0.004167,-0.004167,-0.004167,-0.004167,-0.002083,-0.002083,-0.002083,-0.002083,-0.002083,-0.002083,0,0,0,0,0,0,0,0,0,0,0,0,0.004167,0.008333,0.03125,0.052083,0.10625,0.179167,0.260417,0.302083,0.391667,0.435417,0.516667,0.58125,0.63125,0.652083,0.683333,0.695833,0.710417,0.722917,0.725,0.729167,0.733333,0.7375,0.747917,0.760417,0.764583,0.766667,0.766667,0.766667,0.766667,0.766667,0.766667,0.766667,0.766667,0.766667,0.764583,0.75625,0.75,0.727083,0.695833,0.675,0.625,0.566667,0.535417,0.470833,0.441667,0.385417,0.33125,0.285417,0.264583,0.227083,0.210417,0.179167,0.15,0.120833,0.108333,0.0875,0.075,0.054167,0.03125,0.008333,-0.002083,-0.01875,-0.027083,-0.039583,-0.05,-0.058333,-0.060417,-0.0625,-0.0625,-0.060417,-0.05625,-0.052083,-0.052083,-0.05,-0.05,-0.047917,-0.047917,-0.047917,-0.045833,-0.04375,-0.039583,-0.035417]","[-0.014222,-0.017333,-0.017333,-0.017333,-0.020444,-0.020444,-0.020444,-0.020444,-0.020444,-0.020444,-0.023556,-0.026667,-0.026667,-0.026667,-0.026667,-0.026667,-0.026667,-0.026667,-0.026667,-0.026667,-0.026667,-0.026667,-0.026667,-0.020444,-0.014222,0.016889,0.044889,0.110222,0.194222,0.284444,0.328,0.415111,0.458667,0.533333,0.592444,0.629778,0.645333,0.660889,0.667111,0.673333,0.676444,0.676444,0.676444,0.676444,0.679556,0.685778,0.695111,0.698222,0.698222,0.698222,0.698222,0.698222,0.698222,0.698222,0.698222,0.698222,0.698222,0.695111,0.688889,0.682667,0.664,0.639111,0.623556,0.586222,0.539556,0.514667,0.464889,0.44,0.393333,0.352889,0.315556,0.296889,0.272,0.259556,0.240889,0.219111,0.200444,0.191111,0.172444,0.163111,0.144444,0.122667,0.097778,0.088444,0.069778,0.060444,0.048,0.035556,0.026222,0.023111,0.013778,0.010667,0.007556,-0.001778,-0.008,-0.011111,-0.014222,-0.017333,-0.020444,-0.023556,-0.023556,-0.023556,-0.020444,-0.017333,-0.011111]","[0.0003,0.0169,0.0334,0.0501,0.0667,0.0834,0.1001,0.1168,0.1334,0.15,0.1667,0.1837,0.2002,0.217,0.2337,0.2502,0.2668,0.2841,0.3004,0.3171,0.3338,0.3503,0.3669,0.3838,0.4007,0.4173,0.4337,0.4504,0.4671,0.4839,0.5008,0.5173,0.5339,0.5505,0.5672,0.584,0.6009,0.6176,0.6341,0.6508,0.6772,0.6932,0.7093,0.7256,0.7427,0.7589,0.7755,0.7924,0.8089,0.8255,0.8419,0.859,0.8756,0.8924,0.909,0.9259,0.9427,0.959,0.9759,0.9926,1.0093,1.026,1.0425,1.0592,1.0763,1.0928,1.1094,1.1259,1.1427,1.1592,1.1761,1.1927,1.2096,1.2259,1.2432,1.2593,1.276,1.2928,1.3095,1.3265,1.343,1.3597,1.376,1.393,1.4097,1.4262,1.4432,1.4596,1.4763,1.4935,1.51,1.5263,1.543,1.5597,1.5763,1.5934,1.6099,1.6262,1.6431,1.6599,1.6766,1.6932,1.7099,1.7264,1.7433]","[1,1,1,1,1,1,1,1,1,1,1,1,1,1,1,1,1,1,1,1,1,1,1,1,1,1,1,1,1,1,1,1,1,1,1,1,1,1,2,2,2,2,2,2,2,2,2,2,2,2,2,2,2,2,2,2,2,2,2,2,2,2,2,2,2,2,2,2,2,2,2,2,2,2,2,2,2,2,2,2,2,2,2,2,2,2,2,2,2,2,2,2,2,2,2,2,2,2,2,2,2,2,2,2,2]",7,41.2061,4,12,0,12,0,1,5068,1,SV_6SxWlNLsoRj8nqK,304B,2022-09-27_09h51.54.606,implicit_time,2021.1.4,Linux x86_64,59.95563283
control,52.5,0,0,10,NA,0,NA,0,0,0.5,FALSE,practice,0,"[-0.016667,-0.016667,-0.016667,-0.016667,-0.016667,-0.016667,-0.016667,-0.016667,-0.016667,-0.016667,-0.016667,-0.016667,-0.016667,-0.016667,-0.016667,-0.016667,-0.016667,-0.016667,-0.01875,-0.01875,-0.020833,-0.020833,-0.020833,-0.020833,-0.014583,0.004167,0.01875,0.05625,0.10625,0.13125,0.1875,0.245833,0.277083,0.335417,0.391667,0.41875,0.464583,0.50625,0.525,0.55625,0.583333,0.59375,0.604167,0.60625,0.60625,0.60625,0.60625,0.608333,0.608333,0.608333,0.608333,0.610417,0.6125,0.6125,0.6125,0.608333,0.6,0.566667,0.51875,0.491667,0.429167,0.3625,0.3,0.26875,0.216667,0.19375,0.154167,0.1375,0.110417,0.089583,0.072917,0.066667,0.058333,0.05625,0.054167,0.05,0.047917,0.04375,0.039583,0.0375,0.03125,0.027083,0.020833,0.01875,0.014583,0.0125,0.00625,0,-0.002083,-0.004167]","[0.004444,0.004444,0.004444,0.001333,0.001333,0.001333,0.001333,0.001333,0.001333,0.001333,0.001333,0.001333,0.001333,0.001333,0.001333,0.001333,-0.001778,-0.001778,-0.001778,-0.001778,-0.004889,-0.004889,-0.001778,0.001333,0.02,0.057333,0.085333,0.153778,0.231556,0.275111,0.359111,0.443111,0.486667,0.564444,0.629778,0.660889,0.710667,0.751111,0.772889,0.800889,0.822667,0.828889,0.832,0.828889,0.828889,0.828889,0.828889,0.828889,0.828889,0.828889,0.828889,0.828889,0.825778,0.825778,0.825778,0.816444,0.804,0.760444,0.704444,0.673333,0.604889,0.527111,0.452444,0.418222,0.352889,0.328,0.281333,0.262667,0.228444,0.203556,0.184889,0.178667,0.169333,0.166222,0.16,0.153778,0.144444,0.138222,0.128889,0.122667,0.110222,0.097778,0.088444,0.085333,0.076,0.069778,0.060444,0.051111,0.041778,0.038667]","[0.0001,0.0166,0.033,0.0593,0.0762,0.0844,0.1001,0.1167,0.1332,0.1497,0.1667,0.1832,0.2,0.2165,0.2332,0.25,0.2666,0.2832,0.3001,0.3168,0.3333,0.3499,0.3668,0.3835,0.4002,0.4167,0.4335,0.4502,0.4671,0.4836,0.5005,0.517,0.5336,0.5503,0.567,0.5838,0.6004,0.6172,0.6338,0.6505,0.6673,0.6839,0.7007,0.7174,0.7341,0.7507,0.7674,0.7841,0.8007,0.8174,0.8341,0.8506,0.8672,0.8842,0.9002,0.9175,0.9341,0.9508,0.9676,0.9842,1.0008,1.0175,1.0343,1.0511,1.0678,1.0844,1.101,1.1177,1.1342,1.151,1.1671,1.1837,1.201,1.2177,1.2344,1.251,1.2672,1.2838,1.3012,1.3178,1.3346,1.3505,1.3673,1.3838,1.4013,1.418,1.4339,1.4508,1.4673,1.484]","[1,1,1,1,1,1,1,1,1,1,1,1,1,1,1,1,1,1,1,1,1,1,1,1,1,1,1,1,1,1,1,1,1,1,1,1,1,1,1,2,2,2,2,2,2,2,2,2,2,2,2,2,2,2,2,2,2,2,2,2,2,2,2,2,2,2,2,2,2,2,2,2,2,2,2,2,2,2,2,2,2,2,2,2,2,2,2,2,2,2]",7,43.1986,4,13,0,13,0,1,5068,1,SV_6SxWlNLsoRj8nqK,304B,2022-09-27_09h51.54.606,implicit_time,2021.1.4,Linux x86_64,59.95563283
control,105,0,0,10,NA,0,NA,0,1,0.5,FALSE,practice,1,"[0,0.002083,0.004167,0.004167,0.004167,0.004167,0.004167,0.004167,0.004167,0.004167,0.004167,0.004167,0.004167,0.004167,0.004167,0.004167,0.004167,0.004167,0.004167,0.004167,0.004167,0.004167,0.004167,0.002083,-0.004167,-0.008333,-0.016667,-0.029167,-0.035417,-0.047917,-0.058333,-0.0625,-0.070833,-0.077083,-0.079167,-0.085417,-0.091667,-0.097917,-0.102083,-0.10625,-0.108333,-0.1125,-0.116667,-0.120833,-0.122917,-0.127083,-0.129167,-0.133333,-0.139583,-0.15,-0.154167,-0.164583,-0.170833,-0.18125,-0.19375,-0.204167,-0.208333,-0.21875,-0.222917,-0.23125,-0.241667,-0.25,-0.25625,-0.264583,-0.26875,-0.275,-0.279167,-0.283333,-0.283333,-0.285417,-0.285417,-0.285417,-0.285417,-0.283333,-0.28125,-0.277083,-0.270833,-0.260417,-0.247917,-0.233333,-0.227083,-0.210417,-0.204167,-0.1875,-0.18125,-0.16875,-0.158333,-0.147917,-0.141667,-0.129167,-0.116667,-0.110417,-0.097917,-0.085417,-0.079167,-0.070833,-0.066667,-0.058333,-0.052083,-0.04375,-0.041667,-0.035417,-0.033333,-0.029167]","[-0.008,-0.004889,-0.004889,-0.004889,-0.004889,-0.004889,-0.004889,-0.004889,-0.004889,-0.004889,-0.004889,-0.004889,-0.004889,-0.004889,-0.004889,-0.004889,-0.004889,-0.004889,-0.004889,-0.004889,-0.004889,-0.004889,-0.004889,-0.004889,0.004444,0.013778,0.044889,0.088444,0.116444,0.181778,0.253333,0.290667,0.368444,0.443111,0.477333,0.545778,0.604889,0.657778,0.679556,0.72,0.735556,0.766667,0.794667,0.816444,0.825778,0.844444,0.853778,0.869333,0.884889,0.897333,0.903556,0.912889,0.919111,0.928444,0.934667,0.944,0.947111,0.953333,0.953333,0.959556,0.959556,0.959556,0.959556,0.956444,0.956444,0.953333,0.953333,0.953333,0.953333,0.956444,0.956444,0.956444,0.956444,0.956444,0.956444,0.950222,0.944,0.922222,0.888,0.841333,0.813333,0.754222,0.72,0.648444,0.611111,0.533333,0.458667,0.387111,0.356,0.293778,0.240889,0.219111,0.175556,0.144444,0.128889,0.104,0.091556,0.072889,0.057333,0.044889,0.041778,0.029333,0.026222,0.016889]","[0.0003,0.0167,0.0334,0.0499,0.0666,0.0833,0.0999,0.1166,0.1333,0.15,0.1666,0.1831,0.1999,0.2168,0.2334,0.2503,0.2667,0.2835,0.3002,0.3167,0.3336,0.3503,0.3669,0.3836,0.4003,0.4173,0.4337,0.4504,0.4672,0.4838,0.5005,0.517,0.5338,0.5504,0.5673,0.5839,0.6005,0.6172,0.634,0.6507,0.6673,0.6839,0.7006,0.7173,0.734,0.7508,0.7673,0.7838,0.8008,0.8173,0.834,0.8509,0.8673,0.884,0.9011,0.9177,0.9345,0.9512,0.9678,0.9844,1.001,1.0178,1.0344,1.0511,1.0677,1.0845,1.1012,1.1178,1.1345,1.1512,1.1679,1.1846,1.2014,1.2181,1.2345,1.2515,1.2674,1.2847,1.3014,1.3174,1.3347,1.3513,1.3674,1.3846,1.4011,1.4175,1.4344,1.4516,1.4677,1.4842,1.5015,1.5176,1.5349,1.551,1.5683,1.5844,1.6012,1.6178,1.635,1.6511,1.6685,1.6844,1.7012,1.7179]","[1,1,1,1,1,1,1,1,1,1,1,1,1,1,1,1,1,1,1,1,1,1,1,1,1,1,1,1,1,1,1,1,1,1,1,1,1,1,1,1,1,1,1,1,1,1,1,1,1,1,1,1,1,1,1,2,2,2,2,2,2,2,2,2,2,2,2,2,2,2,2,2,2,2,2,2,2,2,2,2,2,2,2,2,2,2,2,2,2,2,2,2,2,2,2,2,2,2,2,2,2,2,2,2]",8,45.4342,4,14,0,14,0,1,5068,1,SV_6SxWlNLsoRj8nqK,304B,2022-09-27_09h51.54.606,implicit_time,2021.1.4,Linux x86_64,59.95563283
control,97.5,0,0,10,NA,0,NA,0,0,0.5,FALSE,practice,0,"[0.0125,0.010417,0.010417,0.008333,0.00625,0.004167,0.002083,0,0,-0.002083,-0.002083,-0.002083,-0.002083,-0.004167,-0.004167,-0.004167,-0.004167,-0.004167,-0.004167,-0.004167,-0.004167,-0.004167,-0.004167,-0.004167,-0.004167,-0.004167,-0.00625,-0.010417,-0.016667,-0.01875,-0.022917,-0.025,-0.025,-0.025,-0.022917,-0.022917,-0.025,-0.027083,-0.03125,-0.0375,-0.045833,-0.05,-0.0625,-0.06875,-0.083333,-0.097917,-0.1125,-0.11875,-0.129167,-0.133333,-0.1375,-0.141667,-0.14375,-0.14375,-0.14375,-0.14375,-0.14375,-0.145833,-0.147917,-0.147917,-0.15,-0.15,-0.15,-0.15,-0.15,-0.15,-0.15,-0.15,-0.15,-0.15,-0.15,-0.152083,-0.152083,-0.15,-0.15,-0.152083,-0.15625,-0.160417,-0.166667,-0.16875,-0.172917,-0.172917,-0.170833,-0.16875,-0.1625,-0.160417,-0.15,-0.139583,-0.133333,-0.11875,-0.10625,-0.1,-0.0875,-0.079167,-0.075,-0.06875,-0.064583,-0.064583,-0.0625,-0.0625,-0.0625,-0.0625,-0.0625,-0.0625,-0.058333,-0.054167,-0.052083,-0.047917,-0.041667,-0.039583]","[-0.014222,-0.011111,-0.011111,-0.011111,-0.008,-0.008,-0.004889,-0.004889,-0.004889,-0.001778,-0.001778,-0.001778,-0.001778,-0.001778,-0.001778,-0.001778,-0.001778,-0.001778,-0.001778,-0.001778,-0.001778,-0.001778,-0.001778,-0.001778,-0.001778,0.001333,0.010667,0.032444,0.063556,0.085333,0.135111,0.16,0.219111,0.284444,0.349778,0.380889,0.443111,0.471111,0.530222,0.583111,0.636,0.660889,0.707556,0.729333,0.772889,0.810222,0.844444,0.86,0.894222,0.909778,0.940889,0.972,1,1.009333,1.015556,1.015556,1.012444,1.012444,1.012444,1.012444,1.012444,1.012444,1.012444,1.012444,1.012444,1.012444,1.012444,1.012444,1.012444,1.015556,1.015556,1.015556,1.015556,1.009333,0.981333,0.931556,0.866222,0.828889,0.748,0.704444,0.611111,0.517778,0.430667,0.387111,0.309333,0.272,0.209778,0.156889,0.135111,0.097778,0.069778,0.057333,0.041778,0.026222,0.023111,0.010667,0.004444,0.001333,0.001333,-0.001778,-0.001778,-0.001778,-0.001778,-0.001778,0.001333,0.001333,0.001333,0.004444,0.004444,0.001333]","[0.0001,0.0162,0.0331,0.0495,0.0663,0.0829,0.0996,0.1163,0.1331,0.1496,0.1663,0.183,0.1997,0.2165,0.2329,0.2497,0.2664,0.2832,0.2998,0.3164,0.3329,0.3499,0.3665,0.3832,0.3998,0.4165,0.4334,0.45,0.4665,0.4833,0.5001,0.5169,0.5335,0.5502,0.5668,0.5834,0.6003,0.617,0.6336,0.6502,0.667,0.6837,0.7004,0.7171,0.7338,0.7505,0.767,0.7836,0.8005,0.8173,0.8333,0.8507,0.8672,0.884,0.9006,0.9173,0.9341,0.9506,0.9672,0.984,1.0008,1.0175,1.0342,1.0507,1.0673,1.0841,1.1009,1.1176,1.1342,1.1509,1.1675,1.1834,1.2008,1.2176,1.2341,1.2509,1.2666,1.2834,1.3001,1.3167,1.3343,1.3511,1.3678,1.3835,1.4003,1.4168,1.4345,1.4511,1.4678,1.4846,1.5003,1.517,1.5346,1.5512,1.567,1.5838,1.6004,1.617,1.6346,1.6512,1.6673,1.6838,1.7005,1.7171,1.7338,1.7504,1.7672,1.7838,1.8006,1.8173]","[1,1,1,1,1,1,1,1,1,1,1,1,1,1,1,1,1,1,1,1,1,1,1,1,1,1,1,1,1,1,1,1,1,1,1,1,1,1,1,1,1,1,1,1,1,1,1,1,1,1,1,2,2,2,2,2,2,2,2,2,2,2,2,2,2,2,2,2,2,2,2,2,2,2,2,2,2,2,2,2,2,2,2,2,2,2,2,2,2,2,2,2,2,2,2,2,2,2,2,2,2,2,2,2,2,2,2,2,2,2]",8,47.7694,4,15,0,15,0,1,5068,1,SV_6SxWlNLsoRj8nqK,304B,2022-09-27_09h51.54.606,implicit_time,2021.1.4,Linux x86_64,59.95563283
control,135,0,0,10,NA,0,NA,0,1,0.5,FALSE,practice,1,"[-0.004167,-0.004167,-0.004167,-0.004167,-0.004167,-0.004167,-0.004167,-0.004167,-0.004167,-0.004167,-0.004167,-0.004167,-0.004167,-0.004167,-0.004167,-0.004167,-0.004167,-0.004167,-0.004167,-0.00625,-0.00625,-0.008333,-0.0125,-0.020833,-0.035417,-0.058333,-0.070833,-0.1,-0.116667,-0.152083,-0.189583,-0.229167,-0.25,-0.291667,-0.314583,-0.360417,-0.402083,-0.441667,-0.458333,-0.491667,-0.508333,-0.539583,-0.566667,-0.589583,-0.6,-0.61875,-0.63125,-0.6375,-0.65,-0.660417,-0.666667,-0.679167,-0.691667,-0.695833,-0.708333,-0.720833,-0.727083,-0.7375,-0.745833,-0.75,-0.75625,-0.760417,-0.7625,-0.764583,-0.764583,-0.764583,-0.7625,-0.75625,-0.752083,-0.739583,-0.722917,-0.7125,-0.6875,-0.654167,-0.635417,-0.59375,-0.55,-0.527083,-0.48125,-0.435417,-0.4125,-0.370833,-0.33125,-0.3125,-0.279167,-0.25,-0.2375,-0.216667,-0.197917,-0.191667,-0.177083,-0.170833,-0.158333,-0.147917,-0.1375,-0.13125,-0.11875,-0.1125,-0.1,-0.089583,-0.079167,-0.072917,-0.060417,-0.05625,-0.045833,-0.033333]","[-0.008,-0.008,-0.008,-0.008,-0.008,-0.008,-0.008,-0.008,-0.008,-0.008,-0.008,-0.008,-0.008,-0.008,-0.008,-0.008,-0.008,-0.008,-0.008,-0.011111,-0.011111,-0.011111,-0.011111,-0.008,0.004444,0.026222,0.044889,0.082222,0.107111,0.156889,0.209778,0.262667,0.290667,0.343556,0.371556,0.418222,0.468,0.511556,0.533333,0.570667,0.586222,0.614222,0.636,0.654667,0.664,0.679556,0.692,0.698222,0.707556,0.713778,0.716889,0.723111,0.729333,0.732444,0.735556,0.738667,0.741778,0.744889,0.748,0.748,0.751111,0.754222,0.754222,0.754222,0.754222,0.754222,0.751111,0.748,0.741778,0.726222,0.704444,0.688889,0.654667,0.614222,0.592444,0.548889,0.502222,0.480444,0.433778,0.390222,0.368444,0.331111,0.296889,0.281333,0.250222,0.225333,0.212889,0.188,0.169333,0.163111,0.147556,0.141333,0.128889,0.116444,0.107111,0.100889,0.091556,0.088444,0.076,0.066667,0.057333,0.051111,0.044889,0.038667,0.032444,0.023111]","[0.0007,0.0165,0.0331,0.0498,0.0661,0.083,0.0997,0.1165,0.1333,0.1498,0.1663,0.1832,0.1996,0.2162,0.2334,0.2496,0.2665,0.283,0.3,0.3169,0.3335,0.3501,0.3669,0.3835,0.4003,0.4169,0.4336,0.4503,0.4669,0.4835,0.5017,0.5173,0.5338,0.5504,0.567,0.5838,0.6003,0.6172,0.6338,0.6506,0.6672,0.6838,0.7006,0.7175,0.734,0.7505,0.7671,0.7839,0.8008,0.8176,0.8341,0.8507,0.8673,0.884,0.9009,0.9176,0.9342,0.9509,0.9674,0.9843,1.0002,1.0178,1.0345,1.051,1.0678,1.0843,1.101,1.1177,1.1343,1.1509,1.1675,1.1843,1.2001,1.2168,1.2344,1.2511,1.2677,1.2843,1.3003,1.317,1.3345,1.3511,1.368,1.3837,1.4004,1.417,1.4347,1.4505,1.4681,1.4846,1.5006,1.5172,1.5338,1.5505,1.5673,1.5839,1.6006,1.6171,1.6339,1.6506,1.6679,1.6842,1.7009,1.7174,1.734,1.7508]","[1,1,1,1,1,1,1,1,1,1,1,1,1,1,1,1,1,1,1,1,1,1,1,1,1,1,1,1,1,1,1,1,1,1,1,1,1,1,1,1,1,1,1,1,1,1,1,1,2,2,2,2,2,2,2,2,2,2,2,2,2,2,2,2,2,2,2,2,2,2,2,2,2,2,2,2,2,2,2,2,2,2,2,2,2,2,2,2,2,2,2,2,2,2,2,2,2,2,2,2,2,2,2,2,2,2]",9,50.0379,4,16,0,16,0,1,5068,1,SV_6SxWlNLsoRj8nqK,304B,2022-09-27_09h51.54.606,implicit_time,2021.1.4,Linux x86_64,59.95563283
control,142.5,0,0,10,NA,0,NA,0,0,0.5,FALSE,practice,0,"[0.022917,0.020833,0.016667,0.014583,0.010417,0.004167,0,-0.002083,-0.004167,-0.004167,-0.00625,-0.00625,-0.00625,-0.008333,-0.008333,-0.008333,-0.008333,-0.008333,-0.008333,-0.008333,-0.00625,-0.00625,-0.00625,-0.008333,-0.010417,-0.01875,-0.0375,-0.05,-0.079167,-0.116667,-0.135417,-0.179167,-0.222917,-0.24375,-0.289583,-0.335417,-0.358333,-0.404167,-0.445833,-0.466667,-0.504167,-0.5375,-0.554167,-0.585417,-0.6125,-0.625,-0.645833,-0.664583,-0.672917,-0.6875,-0.7,-0.70625,-0.720833,-0.7375,-0.745833,-0.766667,-0.7875,-0.797917,-0.820833,-0.84375,-0.854167,-0.866667,-0.870833,-0.870833,-0.872917,-0.872917,-0.872917,-0.872917,-0.872917,-0.872917,-0.872917,-0.870833,-0.86875,-0.860417,-0.845833,-0.835417,-0.810417,-0.78125,-0.7625,-0.725,-0.68125,-0.660417,-0.614583,-0.56875,-0.545833,-0.5,-0.45625,-0.433333,-0.39375,-0.35625,-0.3375,-0.30625,-0.291667,-0.266667,-0.24375,-0.225,-0.216667,-0.202083,-0.19375,-0.179167,-0.166667,-0.154167,-0.15,-0.141667,-0.1375,-0.13125,-0.127083,-0.125,-0.122917,-0.11875,-0.11875,-0.1125,-0.104167,-0.095833,-0.091667,-0.085417,-0.08125,-0.075,-0.070833,-0.066667,-0.064583,-0.060417,-0.058333,-0.054167,-0.05,-0.04375,-0.039583]","[-0.004889,-0.001778,-0.001778,-0.001778,0.001333,0.001333,0.001333,0.001333,0.001333,0.001333,0.001333,0.001333,0.001333,0.001333,0.001333,0.001333,0.001333,0.001333,0.001333,0.001333,0.001333,0.001333,0.001333,0.004444,0.004444,0.010667,0.026222,0.035556,0.060444,0.091556,0.107111,0.144444,0.181778,0.203556,0.240889,0.275111,0.293778,0.321778,0.352889,0.365333,0.390222,0.408889,0.415111,0.430667,0.446222,0.452444,0.468,0.480444,0.489778,0.505333,0.524,0.533333,0.552,0.570667,0.58,0.598667,0.620444,0.629778,0.645333,0.660889,0.667111,0.673333,0.670222,0.670222,0.667111,0.667111,0.667111,0.667111,0.667111,0.667111,0.667111,0.670222,0.670222,0.667111,0.651556,0.639111,0.608,0.570667,0.548889,0.502222,0.452444,0.430667,0.384,0.343556,0.321778,0.284444,0.253333,0.240889,0.212889,0.188,0.175556,0.153778,0.141333,0.116444,0.094667,0.072889,0.066667,0.051111,0.041778,0.032444,0.023111,0.013778,0.010667,0.004444,0.001333,-0.004889,-0.008,-0.011111,-0.011111,-0.014222,-0.014222,-0.014222,-0.011111,-0.008,-0.004889,-0.004889,-0.001778,-0.001778,-0.001778,-0.001778,-0.001778,-0.001778,-0.004889,-0.004889,-0.004889,-0.004889,-0.004889]","[0.0008,0.0164,0.0327,0.0493,0.0661,0.0829,0.0996,0.1161,0.1327,0.1494,0.1661,0.1828,0.1997,0.2163,0.2328,0.2495,0.2663,0.2831,0.2997,0.3161,0.333,0.3498,0.3666,0.3832,0.3993,0.4166,0.4333,0.4499,0.4667,0.4834,0.5001,0.5166,0.5333,0.5501,0.5669,0.5836,0.6006,0.6169,0.6335,0.6504,0.6669,0.6836,0.7003,0.7169,0.7338,0.7502,0.7669,0.7838,0.8004,0.8169,0.8336,0.8504,0.867,0.8839,0.9003,0.9171,0.9337,0.9496,0.9673,0.984,1.0005,1.0172,1.0339,1.0505,1.0664,1.083,1.0998,1.1163,1.1331,1.1496,1.1664,1.183,1.1998,1.2173,1.2334,1.2498,1.2667,1.2832,1.3007,1.3164,1.3334,1.3498,1.3667,1.3834,1.4001,1.4166,1.4333,1.4504,1.467,1.4835,1.5001,1.5167,1.5335,1.5503,1.567,1.5835,1.6001,1.6168,1.6334,1.6504,1.6671,1.6837,1.7004,1.7171,1.7338,1.7505,1.7671,1.7838,1.8005,1.8172,1.8339,1.8505,1.8673,1.8837,1.9005,1.9173,1.9341,1.9508,1.9674,1.9841,2.0005,2.0175,2.034,2.0509,2.0679,2.084,2.1008]","[1,1,1,1,1,1,1,1,1,1,1,1,1,1,1,1,1,1,1,1,1,1,1,1,1,1,1,1,1,1,1,1,1,1,1,1,1,1,1,1,1,1,1,1,1,1,1,1,1,1,1,1,1,1,1,2,2,2,2,2,2,2,2,2,2,2,2,2,2,2,2,2,2,2,2,2,2,2,2,2,2,2,2,2,2,2,2,2,2,2,2,2,2,2,2,2,2,2,2,2,2,2,2,2,2,2,2,2,2,2,2,2,2,2,2,2,2,2,2,2,2,2,2,2,2,2,2]",9,52.6565,4,17,0,17,0,1,5068,1,SV_6SxWlNLsoRj8nqK,304B,2022-09-27_09h51.54.606,implicit_time,2021.1.4,Linux x86_64,59.95563283
control,75,0,0,10,NA,0,NA,0,1,0.5,FALSE,practice,1,"[-0.020833,-0.020833,-0.020833,-0.020833,-0.020833,-0.020833,-0.020833,-0.020833,-0.020833,-0.01875,-0.016667,-0.014583,-0.0125,-0.010417,-0.010417,-0.010417,-0.008333,-0.008333,-0.008333,-0.008333,-0.008333,-0.008333,-0.008333,-0.008333,-0.008333,-0.00625,-0.004167,0.008333,0.01875,0.04375,0.072917,0.10625,0.125,0.1625,0.179167,0.210417,0.233333,0.25,0.25625,0.266667,0.270833,0.272917,0.277083,0.277083,0.279167,0.279167,0.279167,0.279167,0.277083,0.277083,0.277083,0.279167,0.28125,0.28125,0.279167,0.275,0.275,0.270833,0.26875,0.264583,0.260417,0.258333,0.25625,0.25625,0.25625,0.258333,0.258333,0.258333,0.258333,0.258333,0.258333,0.258333,0.258333,0.258333,0.260417,0.260417,0.2625,0.2625,0.2625,0.2625,0.2625,0.2625,0.2625,0.258333,0.247917,0.239583,0.220833,0.195833,0.18125,0.154167,0.125,0.1125,0.085417,0.0625,0.054167,0.0375,0.022917,0.016667,0.00625,-0.004167,-0.008333,-0.016667,-0.020833,-0.022917,-0.025,-0.025,-0.022917,-0.020833,-0.016667]","[-0.004889,-0.004889,-0.004889,-0.004889,-0.004889,-0.004889,-0.004889,-0.004889,-0.004889,-0.004889,-0.004889,-0.004889,-0.004889,-0.004889,-0.004889,-0.004889,-0.004889,-0.004889,-0.004889,-0.004889,-0.004889,-0.004889,-0.004889,-0.004889,-0.004889,0.004444,0.013778,0.041778,0.063556,0.116444,0.178667,0.250222,0.287556,0.362222,0.396444,0.458667,0.511556,0.558222,0.58,0.611111,0.626667,0.651556,0.673333,0.695111,0.704444,0.723111,0.729333,0.748,0.766667,0.785333,0.794667,0.813333,0.822667,0.838222,0.853778,0.866222,0.872444,0.888,0.894222,0.906667,0.919111,0.928444,0.934667,0.944,0.950222,0.956444,0.962667,0.965778,0.968889,0.968889,0.972,0.972,0.972,0.972,0.975111,0.978222,0.981333,0.981333,0.981333,0.981333,0.981333,0.981333,0.981333,0.968889,0.944,0.925333,0.881778,0.825778,0.794667,0.729333,0.664,0.629778,0.564444,0.499111,0.468,0.412,0.359111,0.334222,0.287556,0.244,0.225333,0.184889,0.150667,0.135111,0.104,0.076,0.066667,0.044889,0.026222]","[0.0006,0.0163,0.033,0.0495,0.0659,0.083,0.0997,0.1161,0.133,0.1496,0.1662,0.183,0.1997,0.2165,0.2332,0.2496,0.2663,0.2833,0.2999,0.3165,0.333,0.3497,0.3665,0.3831,0.3997,0.4164,0.4332,0.4499,0.4665,0.4824,0.5001,0.5168,0.5333,0.55,0.5668,0.5824,0.6003,0.6169,0.6326,0.6501,0.6659,0.6825,0.6992,0.717,0.7336,0.7494,0.766,0.7828,0.7994,0.816,0.8327,0.8494,0.8661,0.8827,0.8995,0.9161,0.9328,0.9494,0.9662,0.983,0.9996,1.0163,1.033,1.0497,1.0663,1.0829,1.0995,1.1167,1.1331,1.1497,1.1664,1.1831,1.1998,1.2164,1.2332,1.2499,1.2664,1.2832,1.2999,1.3167,1.3333,1.35,1.3664,1.3833,1.4,1.4165,1.4334,1.45,1.4667,1.4835,1.5001,1.5169,1.5334,1.5502,1.5669,1.5836,1.6002,1.617,1.6336,1.6504,1.6668,1.6837,1.7005,1.7169,1.7338,1.7504,1.7671,1.7839,1.8006]","[1,1,1,1,1,1,1,1,1,1,1,1,1,1,1,1,1,1,1,1,1,1,1,1,1,1,1,1,1,1,1,1,1,1,1,1,1,1,1,1,1,1,1,1,1,1,1,1,1,1,1,1,1,1,1,1,1,1,1,1,1,2,2,2,2,2,2,2,2,2,2,2,2,2,2,2,2,2,2,2,2,2,2,2,2,2,2,2,2,2,2,2,2,2,2,2,2,2,2,2,2,2,2,2,2,2,2,2,2]",10,54.9749,4,18,0,18,0,1,5068,1,SV_6SxWlNLsoRj8nqK,304B,2022-09-27_09h51.54.606,implicit_time,2021.1.4,Linux x86_64,59.95563283
control,67.5,0,0,10,NA,0,NA,0,0,0.5,FALSE,practice,0,"[0.004167,0.002083,0.002083,0.002083,0.002083,0.002083,0.002083,0.002083,0.002083,0.002083,0.002083,0.002083,0.002083,0.002083,0.002083,0.002083,0.002083,0.002083,0,0,0,0,0,0,0,0.002083,0.004167,0.010417,0.025,0.035417,0.060417,0.091667,0.125,0.14375,0.185417,0.20625,0.247917,0.283333,0.310417,0.322917,0.34375,0.352083,0.364583,0.375,0.38125,0.385417,0.391667,0.39375,0.39375,0.389583,0.3875,0.383333,0.38125,0.379167,0.379167,0.379167,0.379167,0.377083,0.377083,0.379167,0.379167,0.379167,0.379167,0.38125,0.383333,0.38125,0.375,0.354167,0.339583,0.304167,0.2625,0.216667,0.191667,0.141667,0.11875,0.075,0.041667,0.014583,0.004167,-0.0125,-0.016667,-0.020833,-0.01875,-0.016667,-0.014583,-0.010417,-0.008333,-0.002083,0.002083,0.00625,0.010417,0.0125,0.0125,0.014583,0.014583,0.014583,0.014583,0.0125,0.0125,0.010417,0.008333]","[-0.004889,-0.004889,-0.004889,-0.004889,-0.004889,-0.004889,-0.004889,-0.004889,-0.004889,-0.004889,-0.004889,-0.004889,-0.004889,-0.004889,-0.004889,-0.004889,-0.004889,-0.004889,-0.004889,-0.004889,-0.004889,-0.004889,-0.004889,-0.004889,-0.004889,-0.004889,0.007556,0.02,0.057333,0.082222,0.144444,0.216,0.290667,0.331111,0.412,0.452444,0.533333,0.608,0.670222,0.698222,0.751111,0.776,0.819556,0.86,0.894222,0.909778,0.931556,0.937778,0.937778,0.937778,0.937778,0.940889,0.940889,0.940889,0.940889,0.940889,0.940889,0.940889,0.940889,0.940889,0.940889,0.940889,0.944,0.944,0.944,0.931556,0.916,0.866222,0.832,0.757333,0.673333,0.583111,0.536444,0.443111,0.396444,0.312444,0.240889,0.178667,0.153778,0.113333,0.097778,0.076,0.066667,0.060444,0.060444,0.057333,0.057333,0.057333,0.057333,0.060444,0.060444,0.060444,0.060444,0.057333,0.054222,0.051111,0.051111,0.048,0.044889,0.041778,0.038667]","[0.0008,0.0163,0.033,0.0496,0.0664,0.083,0.0994,0.1157,0.1331,0.1489,0.1661,0.1827,0.1998,0.216,0.2326,0.2497,0.2655,0.2828,0.299,0.3161,0.3319,0.3495,0.3662,0.3828,0.3986,0.4157,0.4333,0.4491,0.4658,0.4824,0.4992,0.5157,0.5326,0.5492,0.566,0.5832,0.5994,0.6161,0.6328,0.6495,0.6659,0.6828,0.6995,0.716,0.7329,0.7495,0.766,0.7834,0.7995,0.8164,0.833,0.8497,0.8661,0.883,0.8996,0.9163,0.933,0.95,0.9663,0.9831,0.9997,1.0164,1.033,1.0496,1.0665,1.0837,1.0999,1.1164,1.1333,1.1498,1.1666,1.1834,1.2,1.2168,1.2334,1.2499,1.2668,1.2835,1.2999,1.3166,1.3335,1.3499,1.3667,1.3835,1.4,1.4168,1.4335,1.4503,1.467,1.4835,1.5001,1.5169,1.5335,1.5502,1.5671,1.5835,1.6002,1.6173,1.6337,1.6505,1.6672]","[1,1,1,1,1,1,1,1,1,1,1,1,1,1,1,1,1,1,1,1,1,1,1,1,1,1,1,1,1,1,1,1,1,1,1,1,1,1,1,1,1,1,1,1,2,2,2,2,2,2,2,2,2,2,2,2,2,2,2,2,2,2,2,2,2,2,2,2,2,2,2,2,2,2,2,2,2,2,2,2,2,2,2,2,2,2,2,2,2,2,2,2,2,2,2,2,2,2,2,2,2]",10,57.5102,4,19,0,19,0,1,5068,1,SV_6SxWlNLsoRj8nqK,304B,2022-09-27_09h51.54.606,implicit_time,2021.1.4,Linux x86_64,59.95563283
control,105,0,0,10,NA,0,NA,0,1,0.5,FALSE,practice,1,"[-0.004167,-0.004167,-0.004167,-0.004167,-0.004167,-0.004167,-0.004167,-0.004167,-0.004167,-0.004167,-0.004167,-0.004167,-0.004167,-0.004167,-0.004167,-0.004167,-0.004167,-0.004167,-0.004167,-0.004167,-0.004167,-0.004167,-0.00625,-0.008333,-0.010417,-0.016667,-0.025,-0.029167,-0.039583,-0.05,-0.054167,-0.064583,-0.072917,-0.075,-0.083333,-0.09375,-0.097917,-0.10625,-0.11875,-0.125,-0.139583,-0.15625,-0.1625,-0.177083,-0.189583,-0.19375,-0.202083,-0.208333,-0.2125,-0.21875,-0.225,-0.227083,-0.235417,-0.24375,-0.247917,-0.25625,-0.2625,-0.266667,-0.270833,-0.272917,-0.272917,-0.272917,-0.272917,-0.272917,-0.272917,-0.272917,-0.272917,-0.270833,-0.26875,-0.26875,-0.264583,-0.2625,-0.260417,-0.25625,-0.252083,-0.24375,-0.235417,-0.222917,-0.216667,-0.197917,-0.1875,-0.16875,-0.15,-0.129167,-0.116667,-0.089583,-0.077083,-0.047917,-0.022917,0.002083,0.014583,0.0375,0.047917,0.064583,0.079167,0.091667,0.095833,0.102083,0.104167,0.108333,0.108333,0.108333,0.10625,0.102083,0.1,0.095833,0.091667,0.0875,0.085417,0.083333,0.08125,0.077083,0.070833,0.064583,0.060417,0.052083,0.047917,0.0375,0.027083,0.01875,0.014583]","[-0.001778,-0.001778,-0.001778,-0.001778,-0.001778,-0.001778,-0.001778,-0.001778,-0.001778,-0.001778,-0.001778,-0.001778,-0.001778,-0.001778,-0.001778,-0.001778,-0.001778,-0.001778,-0.001778,-0.001778,-0.001778,-0.001778,0.004444,0.016889,0.029333,0.057333,0.097778,0.122667,0.178667,0.234667,0.265778,0.328,0.390222,0.424444,0.483556,0.545778,0.573778,0.629778,0.682667,0.707556,0.744889,0.782222,0.797778,0.828889,0.856889,0.869333,0.894222,0.912889,0.922222,0.937778,0.950222,0.953333,0.962667,0.972,0.975111,0.984444,0.990667,0.993778,0.996889,0.996889,0.996889,0.996889,0.996889,0.996889,0.996889,0.996889,0.993778,0.990667,0.987556,0.978222,0.962667,0.937778,0.919111,0.875556,0.850667,0.791556,0.723111,0.645333,0.608,0.530222,0.496,0.424444,0.359111,0.306222,0.281333,0.244,0.228444,0.200444,0.178667,0.16,0.153778,0.144444,0.141333,0.132,0.125778,0.119556,0.116444,0.107111,0.104,0.094667,0.085333,0.072889,0.066667,0.054222,0.048,0.038667,0.029333,0.023111,0.02,0.02,0.02,0.02,0.023111,0.026222,0.029333,0.032444,0.035556,0.035556,0.038667,0.038667,0.038667]","[0.0006,0.0164,0.033,0.0494,0.0664,0.083,0.0994,0.1161,0.1331,0.1495,0.1656,0.1823,0.1989,0.2152,0.2332,0.2489,0.2665,0.2832,0.299,0.3157,0.3331,0.3491,0.3657,0.3825,0.3999,0.4157,0.4328,0.4493,0.4659,0.4826,0.4993,0.516,0.5326,0.5492,0.566,0.5827,0.5993,0.616,0.6327,0.6494,0.6661,0.6828,0.6994,0.7161,0.7328,0.7493,0.7662,0.7829,0.7996,0.8163,0.8348,0.8498,0.8663,0.8831,0.8997,0.9164,0.9329,0.9498,0.9664,0.9833,0.9997,1.0165,1.0343,1.0501,1.0665,1.0833,1.1,1.1166,1.1334,1.1515,1.1672,1.1835,1.2002,1.2168,1.2334,1.2502,1.2669,1.2835,1.3002,1.3169,1.3336,1.3503,1.367,1.3836,1.4002,1.417,1.4336,1.4505,1.4672,1.4838,1.5005,1.5172,1.534,1.5506,1.5671,1.5839,1.6005,1.6172,1.6339,1.6506,1.6674,1.684,1.7006,1.7172,1.7341,1.7507,1.7674,1.7841,1.8008,1.8174,1.8342,1.8509,1.8676,1.8841,1.9009,1.9176,1.9344,1.951,1.9689,1.9845,2.0013]","[1,1,1,1,1,1,1,1,1,1,1,1,1,1,1,1,1,1,1,1,1,1,1,1,1,1,1,1,1,1,1,1,1,1,1,1,1,1,1,1,1,1,1,1,1,1,1,1,1,2,2,2,2,2,2,2,2,2,2,2,2,2,2,2,2,2,2,2,2,2,2,2,2,2,2,2,2,2,2,2,2,2,2,2,2,2,2,2,2,2,2,2,2,2,2,2,2,2,2,2,2,2,2,2,2,2,2,2,2,2,2,2,2,2,2,2,2,2,2,2,2]",11,60.0293,4,20,0,20,0,1,5068,1,SV_6SxWlNLsoRj8nqK,304B,2022-09-27_09h51.54.606,implicit_time,2021.1.4,Linux x86_64,59.95563283
control,97.5,0,0,10,NA,0,NA,0,0,0.5,FALSE,practice,0,"[-0.008333,-0.008333,-0.008333,-0.008333,-0.008333,-0.008333,-0.008333,-0.008333,-0.008333,-0.008333,-0.008333,-0.008333,-0.008333,-0.008333,-0.008333,-0.008333,-0.008333,-0.008333,-0.008333,-0.008333,-0.008333,-0.010417,-0.010417,-0.0125,-0.0125,-0.014583,-0.016667,-0.01875,-0.020833,-0.027083,-0.03125,-0.039583,-0.04375,-0.05625,-0.0625,-0.077083,-0.091667,-0.10625,-0.1125,-0.125,-0.129167,-0.139583,-0.147917,-0.154167,-0.15625,-0.158333,-0.158333,-0.15625,-0.154167,-0.152083,-0.152083,-0.15,-0.15,-0.15,-0.154167,-0.158333,-0.166667,-0.172917,-0.175,-0.177083,-0.177083,-0.177083,-0.172917,-0.164583,-0.158333,-0.15,-0.14375,-0.141667,-0.139583,-0.1375,-0.135417,-0.135417,-0.133333,-0.133333,-0.129167,-0.122917,-0.114583,-0.108333,-0.097917,-0.089583,-0.077083,-0.0625,-0.05,-0.04375,-0.033333,-0.029167,-0.022917,-0.016667,-0.016667,-0.014583,-0.014583,-0.014583,-0.016667,-0.01875,-0.01875,-0.01875,-0.014583,-0.014583,-0.010417,-0.008333,-0.00625,-0.00625,-0.004167]","[-0.014222,-0.014222,-0.014222,-0.014222,-0.014222,-0.014222,-0.014222,-0.014222,-0.014222,-0.011111,-0.011111,-0.011111,-0.011111,-0.011111,-0.011111,-0.011111,-0.011111,-0.011111,-0.011111,-0.011111,-0.011111,-0.008,-0.001778,0.013778,0.038667,0.072889,0.094667,0.141333,0.166222,0.222222,0.284444,0.352889,0.387111,0.455556,0.489778,0.558222,0.626667,0.692,0.723111,0.779111,0.804,0.850667,0.891111,0.922222,0.934667,0.959556,0.984444,0.993778,1.009333,1.012444,1.012444,1.012444,1.009333,1.009333,1.009333,1.009333,1.009333,1.009333,1.009333,1.009333,1.009333,1.009333,1.009333,1,0.987556,0.947111,0.891111,0.856889,0.782222,0.698222,0.651556,0.558222,0.461778,0.418222,0.328,0.247111,0.172444,0.138222,0.079111,0.051111,0.004444,-0.032889,-0.064,-0.076444,-0.095111,-0.104444,-0.116889,-0.126222,-0.129333,-0.129333,-0.129333,-0.129333,-0.129333,-0.12,-0.116889,-0.101333,-0.085778,-0.079556,-0.067111,-0.060889,-0.051556,-0.048444,-0.039111]","[0.0004,0.0174,0.0328,0.0512,0.0673,0.0835,0.1,0.1168,0.1332,0.1501,0.1667,0.1832,0.1995,0.2165,0.2334,0.2496,0.2669,0.2832,0.3,0.3169,0.3335,0.3502,0.3672,0.3835,0.4001,0.417,0.4348,0.4509,0.4678,0.4841,0.5009,0.5178,0.5343,0.5509,0.568,0.5843,0.6009,0.618,0.6346,0.6512,0.668,0.6845,0.7012,0.7179,0.7346,0.7515,0.7696,0.7847,0.8014,0.8184,0.8346,0.851,0.8685,0.8847,0.9011,0.9187,0.9361,0.952,0.9685,0.985,1.0017,1.0181,1.0345,1.0522,1.0686,1.0851,1.1018,1.1189,1.1352,1.152,1.1686,1.1853,1.2019,1.2192,1.2355,1.2523,1.2688,1.285,1.3016,1.3183,1.3348,1.3518,1.3703,1.385,1.4016,1.4187,1.4354,1.4518,1.4686,1.485,1.5015,1.5188,1.5353,1.5518,1.5687,1.5851,1.6021,1.6186,1.6355,1.6553,1.6762,1.6858,1.7111]","[1,1,1,1,1,1,1,1,1,1,1,1,1,1,1,1,1,1,1,1,1,1,1,1,1,1,1,1,1,1,1,1,1,1,1,1,1,1,1,1,1,1,1,1,1,2,2,2,2,2,2,2,2,2,2,2,2,2,2,2,2,2,2,2,2,2,2,2,2,2,2,2,2,2,2,2,2,2,2,2,2,2,2,2,2,2,2,2,2,2,2,2,2,2,2,2,2,2,2,2,2,2,2]",11,62.257,4,21,0,21,0,1,5068,1,SV_6SxWlNLsoRj8nqK,304B,2022-09-27_09h51.54.606,implicit_time,2021.1.4,Linux x86_64,59.95563283
control,45,0,0,10,NA,0,NA,0,1,0.5,FALSE,practice,1,"[0.004167,0.004167,0.004167,0.004167,0.004167,0.004167,0.004167,0.004167,0.002083,0.002083,0.002083,0.002083,0.002083,0.002083,0.002083,0.002083,0.002083,0.002083,0.002083,0.002083,0.002083,0.002083,0.002083,0.002083,0.004167,0.0125,0.033333,0.047917,0.0875,0.1375,0.166667,0.233333,0.304167,0.339583,0.40625,0.466667,0.49375,0.541667,0.58125,0.597917,0.627083,0.654167,0.666667,0.689583,0.7125,0.725,0.747917,0.76875,0.779167,0.79375,0.8,0.8,0.8,0.8,0.8,0.8,0.79375,0.791667,0.785417,0.78125,0.775,0.76875,0.7625,0.760417,0.75625,0.754167,0.752083,0.752083,0.747917,0.745833,0.735417,0.725,0.697917,0.660417,0.610417,0.583333,0.525,0.49375,0.435417,0.377083,0.322917,0.297917,0.254167,0.235417,0.202083,0.172917,0.145833,0.135417,0.116667,0.108333,0.095833,0.085417,0.077083,0.070833,0.0625,0.05625,0.041667,0.029167,0.014583,0.00625,-0.00625,-0.0125,-0.020833,-0.027083,-0.03125,-0.033333,-0.035417,-0.035417,-0.035417]","[0.004444,0.004444,0.004444,0.004444,0.004444,0.004444,0.004444,0.004444,0.004444,0.004444,0.004444,0.004444,0.004444,0.004444,0.004444,0.004444,0.004444,0.004444,0.004444,0.004444,0.004444,0.001333,0.001333,0.001333,0.004444,0.013778,0.038667,0.057333,0.107111,0.169333,0.203556,0.275111,0.346667,0.380889,0.44,0.489778,0.508444,0.542667,0.564444,0.573778,0.586222,0.595556,0.598667,0.608,0.614222,0.620444,0.629778,0.642222,0.645333,0.651556,0.651556,0.651556,0.651556,0.651556,0.651556,0.654667,0.654667,0.657778,0.657778,0.657778,0.660889,0.660889,0.660889,0.664,0.664,0.664,0.664,0.660889,0.657778,0.651556,0.639111,0.629778,0.608,0.576889,0.536444,0.514667,0.468,0.446222,0.402667,0.359111,0.321778,0.303111,0.275111,0.262667,0.240889,0.225333,0.209778,0.203556,0.194222,0.188,0.181778,0.172444,0.163111,0.16,0.144444,0.138222,0.119556,0.100889,0.082222,0.072889,0.057333,0.051111,0.041778,0.035556,0.029333,0.026222,0.023111,0.023111,0.02]","[0.0005,0.0163,0.0326,0.0491,0.0659,0.0828,0.0994,0.1161,0.1331,0.1495,0.1658,0.1827,0.1997,0.2157,0.2325,0.2493,0.2661,0.2826,0.2993,0.3157,0.3329,0.3498,0.3665,0.383,0.4001,0.4166,0.4334,0.4502,0.4669,0.4832,0.5004,0.5165,0.5334,0.5503,0.5666,0.5835,0.6004,0.6167,0.6334,0.6503,0.6668,0.6836,0.7003,0.7168,0.7336,0.7506,0.7671,0.7863,0.8008,0.8171,0.8339,0.8504,0.8669,0.8835,0.9005,0.917,0.9337,0.9506,0.9672,0.9838,1.0007,1.0172,1.0338,1.0508,1.0672,1.0838,1.1008,1.1172,1.1341,1.151,1.1675,1.1839,1.201,1.2174,1.2342,1.251,1.2674,1.2842,1.3012,1.3174,1.334,1.3511,1.3675,1.3842,1.4011,1.4176,1.4345,1.4514,1.4676,1.4844,1.5012,1.5178,1.5346,1.5513,1.5678,1.5845,1.6014,1.618,1.6347,1.6515,1.6679,1.6847,1.7015,1.7179,1.7347,1.7518,1.768,1.7849,1.8015]","[1,1,1,1,1,1,1,1,1,1,1,1,1,1,1,1,1,1,1,1,1,1,1,1,1,1,1,1,1,1,1,1,1,1,1,1,1,1,1,1,1,1,1,1,1,1,2,2,2,2,2,2,2,2,2,2,2,2,2,2,2,2,2,2,2,2,2,2,2,2,2,2,2,2,2,2,2,2,2,2,2,2,2,2,2,2,2,2,2,2,2,2,2,2,2,2,2,2,2,2,2,2,2,2,2,2,2,2,2]",12,64.5673,4,22,0,22,0,1,5068,1,SV_6SxWlNLsoRj8nqK,304B,2022-09-27_09h51.54.606,implicit_time,2021.1.4,Linux x86_64,59.95563283
control,52.5,0,0,10,NA,0,NA,0,0,0.5,FALSE,practice,0,"[0.002083,0.002083,0.002083,0.002083,0.002083,0.002083,0.002083,0.002083,0.002083,0.002083,0.002083,0.002083,0.002083,0.002083,0.002083,0.002083,0.002083,0.002083,0.002083,0.002083,0.002083,0.002083,0.002083,0,0,0,0.008333,0.029167,0.066667,0.091667,0.15,0.183333,0.25625,0.33125,0.397917,0.429167,0.483333,0.508333,0.55,0.579167,0.602083,0.610417,0.625,0.633333,0.645833,0.65,0.65,0.647917,0.647917,0.645833,0.64375,0.641667,0.641667,0.641667,0.639583,0.639583,0.639583,0.641667,0.641667,0.641667,0.64375,0.64375,0.64375,0.635417,0.627083,0.597917,0.554167,0.50625,0.479167,0.425,0.395833,0.341667,0.291667,0.247917,0.229167,0.19375,0.179167,0.154167,0.135417,0.122917,0.116667,0.10625,0.1,0.091667,0.085417,0.08125,0.079167,0.075,0.072917,0.064583,0.058333,0.052083,0.05,0.045833,0.045833,0.04375,0.041667,0.039583]","[0.007556,0.007556,0.007556,0.007556,0.007556,0.007556,0.007556,0.007556,0.007556,0.007556,0.007556,0.007556,0.007556,0.007556,0.007556,0.007556,0.007556,0.007556,0.007556,0.007556,0.007556,0.007556,0.007556,0.007556,0.007556,0.010667,0.023111,0.057333,0.110222,0.144444,0.225333,0.268889,0.359111,0.443111,0.520889,0.552,0.611111,0.636,0.679556,0.710667,0.735556,0.744889,0.766667,0.776,0.791556,0.797778,0.794667,0.794667,0.794667,0.797778,0.797778,0.800889,0.800889,0.800889,0.800889,0.800889,0.800889,0.800889,0.800889,0.800889,0.800889,0.800889,0.800889,0.791556,0.779111,0.738667,0.685778,0.623556,0.586222,0.514667,0.477333,0.408889,0.346667,0.293778,0.268889,0.231556,0.212889,0.181778,0.156889,0.138222,0.132,0.116444,0.110222,0.094667,0.085333,0.072889,0.066667,0.054222,0.044889,0.032444,0.02,0.013778,0.010667,0.004444,0.004444,0.004444,0.007556,0.010667]","[0.0005,0.0171,0.0332,0.0497,0.0663,0.0832,0.0998,0.116,0.1335,0.1493,0.1666,0.1838,0.2002,0.2165,0.2329,0.25,0.2661,0.2827,0.3002,0.3167,0.3332,0.3508,0.3674,0.3837,0.4005,0.4168,0.4337,0.4543,0.4675,0.4843,0.5015,0.5177,0.5343,0.5509,0.5677,0.5858,0.6012,0.6177,0.6346,0.6509,0.6676,0.6842,0.7012,0.7178,0.7343,0.7514,0.7687,0.7846,0.8014,0.8178,0.8346,0.8518,0.8681,0.8844,0.9015,0.9181,0.9341,0.9513,0.9679,0.9843,1.0011,1.0182,1.0343,1.0516,1.0685,1.0864,1.102,1.1184,1.135,1.1517,1.1683,1.1853,1.2019,1.2184,1.235,1.2515,1.2678,1.2849,1.3014,1.3181,1.3346,1.3517,1.3683,1.3848,1.4017,1.4182,1.4347,1.4517,1.4683,1.4847,1.5017,1.5182,1.5349,1.5517,1.5682,1.5847,1.6019,1.6183]","[1,1,1,1,1,1,1,1,1,1,1,1,1,1,1,1,1,1,1,1,1,1,1,1,1,1,1,1,1,1,1,1,1,1,1,1,1,1,1,1,1,2,2,2,2,2,2,2,2,2,2,2,2,2,2,2,2,2,2,2,2,2,2,2,2,2,2,2,2,2,2,2,2,2,2,2,2,2,2,2,2,2,2,2,2,2,2,2,2,2,2,2,2,2,2,2,2,2]",12,66.7033,4,23,0,23,0,1,5068,1,SV_6SxWlNLsoRj8nqK,304B,2022-09-27_09h51.54.606,implicit_time,2021.1.4,Linux x86_64,59.95563283
control,135,0,0,10,NA,0,NA,0,1,0.5,FALSE,practice,1,"[-0.002083,-0.002083,-0.002083,-0.002083,-0.002083,-0.002083,-0.002083,-0.002083,-0.002083,-0.002083,-0.002083,-0.004167,-0.004167,-0.004167,-0.004167,-0.004167,-0.00625,-0.00625,-0.00625,-0.00625,-0.00625,-0.00625,-0.00625,-0.00625,-0.008333,-0.014583,-0.01875,-0.029167,-0.045833,-0.054167,-0.079167,-0.10625,-0.120833,-0.152083,-0.185417,-0.202083,-0.239583,-0.277083,-0.295833,-0.335417,-0.377083,-0.397917,-0.439583,-0.48125,-0.51875,-0.535417,-0.566667,-0.58125,-0.60625,-0.627083,-0.64375,-0.652083,-0.666667,-0.672917,-0.683333,-0.691667,-0.7,-0.704167,-0.7125,-0.716667,-0.725,-0.733333,-0.741667,-0.745833,-0.754167,-0.75625,-0.7625,-0.764583,-0.766667,-0.766667,-0.766667,-0.766667,-0.7625,-0.760417,-0.754167,-0.745833,-0.735417,-0.727083,-0.708333,-0.683333,-0.670833,-0.6375,-0.597917,-0.577083,-0.533333,-0.4875,-0.464583,-0.416667,-0.372917,-0.35,-0.308333,-0.270833,-0.254167,-0.220833,-0.191667,-0.179167,-0.15625,-0.1375,-0.129167,-0.116667,-0.10625,-0.104167,-0.097917,-0.091667,-0.0875,-0.08125,-0.072917,-0.06875,-0.060417,-0.052083,-0.047917,-0.041667,-0.033333]","[-0.011111,-0.011111,-0.011111,-0.011111,-0.011111,-0.011111,-0.011111,-0.011111,-0.011111,-0.011111,-0.014222,-0.014222,-0.014222,-0.014222,-0.014222,-0.017333,-0.017333,-0.017333,-0.017333,-0.017333,-0.017333,-0.017333,-0.014222,-0.014222,-0.004889,0.013778,0.029333,0.060444,0.097778,0.116444,0.16,0.203556,0.225333,0.265778,0.303111,0.324889,0.365333,0.402667,0.421333,0.458667,0.486667,0.499111,0.524,0.548889,0.573778,0.586222,0.604889,0.611111,0.623556,0.632889,0.642222,0.645333,0.651556,0.651556,0.657778,0.660889,0.667111,0.670222,0.676444,0.679556,0.685778,0.692,0.695111,0.695111,0.698222,0.701333,0.704444,0.704444,0.704444,0.707556,0.707556,0.707556,0.704444,0.704444,0.704444,0.698222,0.692,0.685778,0.667111,0.642222,0.626667,0.592444,0.552,0.527111,0.480444,0.427556,0.402667,0.356,0.309333,0.284444,0.237778,0.197333,0.178667,0.147556,0.116444,0.104,0.085333,0.069778,0.063556,0.051111,0.038667,0.032444,0.023111,0.013778,0.010667,0.001333,-0.008,-0.011111,-0.014222,-0.017333,-0.020444,-0.020444,-0.023556]","[0.0005,0.0174,0.0332,0.0501,0.0667,0.083,0.1,0.1168,0.1331,0.15,0.1669,0.1834,0.1999,0.2171,0.2334,0.2501,0.267,0.2833,0.3003,0.317,0.3338,0.3506,0.3673,0.3838,0.4002,0.4171,0.4339,0.4504,0.4673,0.4837,0.5006,0.5173,0.5339,0.5504,0.5675,0.584,0.6007,0.6174,0.6339,0.6506,0.6675,0.684,0.7008,0.7175,0.7343,0.7506,0.7678,0.7839,0.8008,0.8176,0.8342,0.8508,0.868,0.8843,0.9009,0.9177,0.9343,0.953,0.9681,0.9843,1.0012,1.0179,1.0345,1.0509,1.068,1.0845,1.101,1.118,1.1343,1.1512,1.168,1.1845,1.2011,1.2182,1.2346,1.2513,1.2681,1.2849,1.3017,1.3183,1.3346,1.3514,1.3683,1.3848,1.4014,1.4185,1.4348,1.4516,1.4684,1.4848,1.5016,1.5186,1.5353,1.5517,1.5685,1.585,1.6017,1.6187,1.6351,1.652,1.6688,1.686,1.702,1.7187,1.7352,1.7519,1.7689,1.7851,1.8019,1.8188,1.8353,1.8524,1.8691]","[1,1,1,1,1,1,1,1,1,1,1,1,1,1,1,1,1,1,1,1,1,1,1,1,1,1,1,1,1,1,1,1,1,1,1,1,1,1,1,1,1,1,1,1,1,1,1,1,1,1,1,1,1,1,1,1,2,2,2,2,2,2,2,2,2,2,2,2,2,2,2,2,2,2,2,2,2,2,2,2,2,2,2,2,2,2,2,2,2,2,2,2,2,2,2,2,2,2,2,2,2,2,2,2,2,2,2,2,2,2,2,2,2]",13,69.0898,4,24,0,24,0,1,5068,1,SV_6SxWlNLsoRj8nqK,304B,2022-09-27_09h51.54.606,implicit_time,2021.1.4,Linux x86_64,59.95563283
control,127.5,0,0,10,NA,0,NA,0,0,0.5,FALSE,practice,0,"[0.002083,0.002083,0.002083,0.002083,0.002083,0.002083,0,0,0,-0.002083,-0.002083,-0.002083,-0.004167,-0.004167,-0.004167,-0.004167,-0.004167,-0.004167,-0.004167,-0.004167,-0.004167,-0.004167,-0.004167,-0.004167,-0.004167,-0.00625,-0.0125,-0.016667,-0.029167,-0.04375,-0.052083,-0.075,-0.097917,-0.110417,-0.1375,-0.164583,-0.179167,-0.208333,-0.239583,-0.254167,-0.283333,-0.3125,-0.325,-0.35,-0.372917,-0.385417,-0.40625,-0.427083,-0.4375,-0.454167,-0.472917,-0.48125,-0.497917,-0.5125,-0.51875,-0.53125,-0.54375,-0.55,-0.5625,-0.570833,-0.577083,-0.585417,-0.591667,-0.597917,-0.602083,-0.602083,-0.602083,-0.602083,-0.602083,-0.602083,-0.602083,-0.602083,-0.602083,-0.602083,-0.602083,-0.602083,-0.6,-0.59375,-0.5875,-0.575,-0.56875,-0.554167,-0.535417,-0.5125,-0.5,-0.46875,-0.45,-0.4125,-0.370833,-0.329167,-0.308333,-0.266667,-0.245833,-0.20625,-0.166667,-0.135417,-0.120833,-0.097917,-0.0875,-0.070833,-0.060417,-0.054167,-0.052083,-0.05,-0.05,-0.052083,-0.05625,-0.060417,-0.0625,-0.066667,-0.066667,-0.066667,-0.066667,-0.064583,-0.0625,-0.05625,-0.052083,-0.041667,-0.035417]","[0.001333,0.001333,0.001333,0.001333,0.001333,0.001333,0.001333,-0.001778,-0.001778,-0.001778,-0.004889,-0.004889,-0.004889,-0.004889,-0.004889,-0.004889,-0.004889,-0.004889,-0.004889,-0.004889,-0.004889,-0.004889,-0.004889,-0.004889,-0.004889,-0.001778,0.007556,0.013778,0.032444,0.057333,0.072889,0.107111,0.147556,0.169333,0.216,0.262667,0.287556,0.340444,0.396444,0.421333,0.474222,0.527111,0.552,0.598667,0.636,0.654667,0.682667,0.704444,0.713778,0.732444,0.748,0.754222,0.766667,0.779111,0.785333,0.797778,0.810222,0.816444,0.828889,0.844444,0.850667,0.863111,0.869333,0.875556,0.878667,0.875556,0.875556,0.875556,0.875556,0.875556,0.875556,0.875556,0.875556,0.875556,0.875556,0.875556,0.872444,0.86,0.847556,0.819556,0.797778,0.748,0.688889,0.620444,0.583111,0.514667,0.483556,0.418222,0.362222,0.309333,0.284444,0.244,0.225333,0.191111,0.166222,0.141333,0.132,0.110222,0.100889,0.085333,0.076,0.066667,0.060444,0.057333,0.054222,0.051111,0.048,0.044889,0.044889,0.044889,0.044889,0.044889,0.044889,0.041778,0.038667,0.032444,0.029333,0.023111,0.016889]","[0.0006,0.0174,0.0336,0.0502,0.0667,0.0834,0.1001,0.1168,0.1337,0.1501,0.167,0.1837,0.2002,0.2168,0.2337,0.2502,0.2663,0.2833,0.3001,0.317,0.3333,0.3501,0.3671,0.3834,0.4002,0.4173,0.4339,0.4505,0.4672,0.4847,0.501,0.5179,0.5347,0.5511,0.5679,0.5848,0.6012,0.6181,0.6362,0.6515,0.668,0.685,0.7013,0.7182,0.735,0.7514,0.7682,0.7849,0.8013,0.8209,0.8353,0.8519,0.8685,0.8853,0.9018,0.9184,0.9352,0.9517,0.9684,0.9865,1.0019,1.0187,1.0353,1.0518,1.0687,1.0853,1.1022,1.1183,1.1348,1.1514,1.168,1.185,1.2014,1.2182,1.2351,1.2514,1.2682,1.2857,1.3022,1.319,1.3357,1.3523,1.369,1.3877,1.4022,1.4191,1.436,1.4524,1.4691,1.486,1.5026,1.5191,1.5359,1.552,1.5687,1.5857,1.6025,1.6187,1.6355,1.652,1.6688,1.6857,1.7021,1.7187,1.7356,1.7521,1.7687,1.7857,1.8022,1.8189,1.8356,1.8521,1.8687,1.8859,1.9024,1.9189,1.9358,1.9522,1.9692]","[1,1,1,1,1,1,1,1,1,1,1,1,1,1,1,1,1,1,1,1,1,1,1,1,1,1,1,1,1,1,1,1,1,1,1,1,1,1,1,1,1,1,1,1,1,1,1,1,1,1,1,1,1,1,1,2,2,2,2,2,2,2,2,2,2,2,2,2,2,2,2,2,2,2,2,2,2,2,2,2,2,2,2,2,2,2,2,2,2,2,2,2,2,2,2,2,2,2,2,2,2,2,2,2,2,2,2,2,2,2,2,2,2,2,2,2,2,2,2]",13,71.576,4,25,0,25,0,1,5068,1,SV_6SxWlNLsoRj8nqK,304B,2022-09-27_09h51.54.606,implicit_time,2021.1.4,Linux x86_64,59.95563283
control,75,0,0,10,NA,0,NA,0,1,0.5,FALSE,practice,1,"[-0.008333,-0.008333,-0.00625,-0.004167,-0.004167,-0.002083,-0.002083,-0.002083,-0.002083,-0.002083,-0.002083,-0.002083,-0.002083,-0.002083,-0.002083,-0.002083,-0.002083,-0.002083,-0.002083,-0.002083,-0.002083,-0.002083,-0.002083,-0.002083,-0.002083,0,0.002083,0.010417,0.014583,0.022917,0.027083,0.0375,0.047917,0.054167,0.05625,0.058333,0.060417,0.060417,0.0625,0.066667,0.06875,0.079167,0.085417,0.102083,0.120833,0.139583,0.147917,0.164583,0.172917,0.1875,0.202083,0.20625,0.214583,0.222917,0.227083,0.235417,0.245833,0.25,0.258333,0.264583,0.266667,0.270833,0.272917,0.275,0.277083,0.277083,0.277083,0.275,0.272917,0.272917,0.272917,0.272917,0.272917,0.270833,0.270833,0.270833,0.270833,0.270833,0.270833,0.270833,0.270833,0.270833,0.26875,0.260417,0.252083,0.229167,0.202083,0.1875,0.154167,0.116667,0.097917,0.066667,0.041667,0.03125,0.0125,0,-0.00625,-0.008333,-0.010417,-0.0125,-0.0125,-0.014583,-0.016667,-0.016667,-0.01875,-0.020833,-0.020833,-0.022917,-0.022917,-0.022917,-0.022917,-0.022917,-0.020833,-0.020833,-0.020833,-0.020833,-0.01875,-0.01875,-0.020833,-0.020833,-0.020833,-0.020833,-0.020833,-0.020833,-0.020833,-0.020833,-0.020833,-0.020833,-0.020833,-0.020833,-0.020833,-0.022917,-0.022917]","[-0.001778,-0.001778,-0.004889,-0.004889,-0.008,-0.008,-0.008,-0.008,-0.008,-0.008,-0.008,-0.008,-0.008,-0.008,-0.008,-0.008,-0.008,-0.008,-0.008,-0.008,-0.008,-0.008,-0.008,-0.008,-0.008,-0.004889,0.007556,0.026222,0.038667,0.060444,0.072889,0.097778,0.119556,0.135111,0.141333,0.153778,0.156889,0.172444,0.191111,0.212889,0.228444,0.262667,0.281333,0.324889,0.371556,0.421333,0.446222,0.499111,0.524,0.576889,0.623556,0.648444,0.692,0.732444,0.754222,0.791556,0.828889,0.847556,0.878667,0.906667,0.919111,0.940889,0.959556,0.965778,0.975111,0.978222,0.978222,0.978222,0.978222,0.978222,0.978222,0.978222,0.978222,0.978222,0.978222,0.978222,0.978222,0.978222,0.978222,0.978222,0.981333,0.981333,0.975111,0.950222,0.928444,0.878667,0.813333,0.776,0.701333,0.620444,0.58,0.505333,0.436889,0.408889,0.352889,0.309333,0.275111,0.262667,0.240889,0.231556,0.216,0.203556,0.191111,0.184889,0.175556,0.169333,0.16,0.150667,0.144444,0.141333,0.135111,0.128889,0.119556,0.110222,0.100889,0.094667,0.085333,0.082222,0.076,0.072889,0.066667,0.060444,0.057333,0.057333,0.054222,0.054222,0.051111,0.048,0.044889,0.044889,0.038667,0.038667,0.032444]","[0.0006,0.0165,0.033,0.0499,0.0665,0.083,0.0995,0.1162,0.1325,0.1499,0.1665,0.1833,0.1994,0.2161,0.233,0.25,0.2666,0.2829,0.2999,0.3164,0.3331,0.35,0.3666,0.3835,0.4,0.4166,0.4335,0.4502,0.4679,0.4844,0.5003,0.5168,0.5333,0.5503,0.5672,0.5836,0.6004,0.6167,0.6333,0.6502,0.6669,0.6835,0.7003,0.7169,0.7336,0.7506,0.7669,0.7836,0.8003,0.817,0.8357,0.8514,0.8674,0.8843,0.9009,0.9173,0.934,0.951,0.9673,0.9841,1.0008,1.0174,1.0366,1.051,1.0676,1.084,1.1009,1.1173,1.1341,1.1507,1.1672,1.184,1.2007,1.2175,1.2341,1.2509,1.2674,1.2841,1.3006,1.3175,1.3341,1.3511,1.3675,1.3842,1.4012,1.4177,1.4346,1.4512,1.4677,1.4844,1.5013,1.5178,1.5344,1.5513,1.5677,1.5845,1.6014,1.6178,1.6345,1.6514,1.6679,1.6846,1.7016,1.7179,1.7347,1.7516,1.7684,1.7848,1.8017,1.8185,1.8352,1.8518,1.8682,1.885,1.9019,1.9183,1.935,1.9518,1.9685,1.9851,2.0019,2.0187,2.0352,2.052,2.0685,2.0852,2.1021,2.1187,2.1353,2.1521,2.1686,2.1855,2.2022]","[1,1,1,1,1,1,1,1,1,1,1,1,1,1,1,1,1,1,1,1,1,1,1,1,1,1,1,1,1,1,1,1,1,1,1,1,1,1,1,1,1,1,1,1,1,1,1,1,1,1,1,1,1,1,1,1,1,1,1,1,1,2,2,2,2,2,2,2,2,2,2,2,2,2,2,2,2,2,2,2,2,2,2,2,2,2,2,2,2,2,2,2,2,2,2,2,2,2,2,2,2,2,2,2,2,2,2,2,2,2,2,2,2,2,2,2,2,2,2,2,2,2,2,2,2,2,2,2,2,2,2,2,2]",14,74.2957,4,26,0,26,0,1,5068,1,SV_6SxWlNLsoRj8nqK,304B,2022-09-27_09h51.54.606,implicit_time,2021.1.4,Linux x86_64,59.95563283
control,67.5,0,0,10,NA,0,NA,0,0,0.5,FALSE,practice,0,"[-0.010417,-0.010417,-0.010417,-0.010417,-0.010417,-0.010417,-0.010417,-0.010417,-0.010417,-0.010417,-0.010417,-0.010417,-0.010417,-0.010417,-0.010417,-0.010417,-0.010417,-0.010417,-0.010417,-0.010417,-0.010417,-0.010417,-0.008333,-0.00625,0.004167,0.01875,0.029167,0.05,0.075,0.089583,0.11875,0.133333,0.1625,0.1875,0.2125,0.222917,0.24375,0.254167,0.272917,0.285417,0.297917,0.304167,0.316667,0.320833,0.333333,0.339583,0.341667,0.34375,0.34375,0.34375,0.34375,0.34375,0.34375,0.34375,0.34375,0.34375,0.34375,0.34375,0.34375,0.34375,0.34375,0.34375,0.34375,0.345833,0.347917,0.35,0.352083,0.35625,0.358333,0.3625,0.366667,0.366667,0.3625,0.345833,0.33125,0.29375,0.252083,0.229167,0.183333,0.1375,0.114583,0.072917,0.039583,0.025,0.002083,-0.016667,-0.022917,-0.029167,-0.03125,-0.033333,-0.03125,-0.03125,-0.03125,-0.03125,-0.03125,-0.033333,-0.035417,-0.0375,-0.039583,-0.041667,-0.04375,-0.04375,-0.04375,-0.04375,-0.041667,-0.0375,-0.035417,-0.03125,-0.029167,-0.027083,-0.025,-0.022917,-0.022917,-0.020833,-0.01875,-0.01875]","[-0.004889,-0.004889,-0.004889,-0.004889,-0.004889,-0.004889,-0.004889,-0.004889,-0.004889,-0.004889,-0.004889,-0.004889,-0.004889,-0.004889,-0.004889,-0.004889,-0.004889,-0.004889,-0.004889,-0.004889,-0.004889,0.001333,0.016889,0.029333,0.066667,0.116444,0.141333,0.203556,0.268889,0.306222,0.380889,0.418222,0.489778,0.558222,0.620444,0.651556,0.710667,0.738667,0.788444,0.828889,0.866222,0.881778,0.912889,0.925333,0.950222,0.959556,0.959556,0.959556,0.956444,0.956444,0.956444,0.959556,0.959556,0.959556,0.959556,0.959556,0.959556,0.959556,0.959556,0.959556,0.959556,0.959556,0.959556,0.962667,0.962667,0.962667,0.962667,0.962667,0.962667,0.962667,0.959556,0.959556,0.944,0.900444,0.872444,0.797778,0.716889,0.676444,0.592444,0.508444,0.468,0.393333,0.331111,0.306222,0.259556,0.225333,0.209778,0.194222,0.184889,0.181778,0.178667,0.175556,0.172444,0.166222,0.156889,0.153778,0.141333,0.132,0.125778,0.116444,0.113333,0.107111,0.104,0.100889,0.100889,0.097778,0.097778,0.097778,0.091556,0.085333,0.079111,0.072889,0.066667,0.054222,0.041778,0.032444]","[0.0005,0.017,0.0325,0.0499,0.0665,0.0827,0.0993,0.116,0.1329,0.1498,0.1662,0.1827,0.1999,0.216,0.2328,0.25,0.2665,0.283,0.3,0.3164,0.333,0.3501,0.3668,0.3834,0.4001,0.417,0.4339,0.4508,0.4676,0.484,0.5011,0.5174,0.534,0.5508,0.5675,0.5841,0.6009,0.6175,0.6343,0.6513,0.6677,0.6845,0.7011,0.718,0.7342,0.7526,0.7679,0.7843,0.8016,0.8181,0.8342,0.8508,0.8678,0.8847,0.9011,0.9178,0.9343,0.9512,0.9676,0.984,1.0011,1.0179,1.0342,1.051,1.0681,1.0848,1.1017,1.1183,1.1348,1.152,1.1683,1.1849,1.2013,1.2184,1.235,1.2519,1.2687,1.285,1.3017,1.3184,1.3353,1.352,1.3697,1.3852,1.4018,1.4183,1.4346,1.4514,1.4679,1.4845,1.5016,1.5181,1.5347,1.5517,1.5681,1.5846,1.6017,1.6183,1.635,1.6517,1.6681,1.6848,1.7018,1.7183,1.7349,1.7519,1.7683,1.785,1.8018,1.8184,1.8351,1.8518,1.8685,1.8853,1.902,1.9185]","[1,1,1,1,1,1,1,1,1,1,1,1,1,1,1,1,1,1,1,1,1,1,1,1,1,1,1,1,1,1,1,1,1,1,1,1,1,1,1,1,1,1,2,2,2,2,2,2,2,2,2,2,2,2,2,2,2,2,2,2,2,2,2,2,2,2,2,2,2,2,2,2,2,2,2,2,2,2,2,2,2,2,2,2,2,2,2,2,2,2,2,2,2,2,2,2,2,2,2,2,2,2,2,2,2,2,2,2,2,2,2,2,2,2,2,2]",14,76.7319,4,27,0,27,0,1,5068,1,SV_6SxWlNLsoRj8nqK,304B,2022-09-27_09h51.54.606,implicit_time,2021.1.4,Linux x86_64,59.95563283
control,105,0,0,10,NA,0,NA,0,1,0.5,FALSE,practice,1,"[-0.014583,-0.014583,-0.014583,-0.014583,-0.014583,-0.014583,-0.014583,-0.014583,-0.014583,-0.014583,-0.014583,-0.014583,-0.014583,-0.014583,-0.014583,-0.014583,-0.014583,-0.014583,-0.014583,-0.014583,-0.014583,-0.014583,-0.016667,-0.01875,-0.022917,-0.027083,-0.03125,-0.041667,-0.052083,-0.058333,-0.066667,-0.072917,-0.077083,-0.0875,-0.1,-0.10625,-0.120833,-0.135417,-0.14375,-0.160417,-0.177083,-0.185417,-0.2,-0.2125,-0.220833,-0.225,-0.233333,-0.235417,-0.241667,-0.241667,-0.24375,-0.245833,-0.25,-0.252083,-0.254167,-0.25625,-0.258333,-0.260417,-0.260417,-0.260417,-0.260417,-0.260417,-0.258333,-0.25625,-0.25,-0.245833,-0.239583,-0.229167,-0.21875,-0.210417,-0.195833,-0.1875,-0.16875,-0.152083,-0.13125,-0.120833,-0.097917,-0.085417,-0.064583,-0.04375,-0.022917,-0.014583,0.002083,0.008333,0.01875,0.025,0.027083,0.027083,0.027083,0.025,0.020833,0.014583,0.0125,0.008333,0.004167,0.002083,0,-0.002083,0,0]","[-0.004889,-0.004889,-0.004889,-0.004889,-0.004889,-0.004889,-0.004889,-0.004889,-0.004889,-0.004889,-0.004889,-0.004889,-0.004889,-0.004889,-0.004889,-0.004889,-0.004889,-0.004889,-0.004889,-0.004889,-0.004889,0.001333,0.013778,0.026222,0.060444,0.113333,0.141333,0.206667,0.278222,0.315556,0.390222,0.464889,0.502222,0.567556,0.629778,0.660889,0.713778,0.763556,0.785333,0.822667,0.856889,0.875556,0.906667,0.934667,0.959556,0.968889,0.987556,0.996889,1.003111,1.003111,1.003111,1.003111,1.003111,1.003111,1,1,1,1,1,1,1,1,0.996889,0.990667,0.968889,0.956444,0.919111,0.872444,0.813333,0.782222,0.716889,0.679556,0.611111,0.539556,0.477333,0.446222,0.396444,0.371556,0.331111,0.290667,0.262667,0.250222,0.225333,0.216,0.194222,0.175556,0.16,0.153778,0.138222,0.132,0.116444,0.100889,0.094667,0.082222,0.072889,0.066667,0.054222,0.048,0.044889,0.035556]","[0.0007,0.0168,0.0327,0.0495,0.0669,0.0829,0.0996,0.1165,0.1326,0.1492,0.1666,0.183,0.1997,0.2165,0.2326,0.2496,0.2665,0.2831,0.2997,0.3166,0.3335,0.3502,0.3672,0.3833,0.3999,0.4167,0.4335,0.4497,0.4671,0.4834,0.5,0.517,0.5335,0.5501,0.5669,0.5838,0.6001,0.6171,0.6336,0.6505,0.6673,0.684,0.7005,0.7173,0.7359,0.7509,0.7674,0.7837,0.8005,0.8174,0.8338,0.8506,0.8675,0.8837,0.9005,0.9174,0.934,0.9509,0.9677,0.984,1.0006,1.0174,1.0341,1.0508,1.068,1.0844,1.1009,1.1178,1.1341,1.1509,1.1678,1.1842,1.2009,1.2178,1.2344,1.2509,1.268,1.2843,1.3012,1.3179,1.3346,1.3512,1.3679,1.3843,1.4011,1.4179,1.4344,1.4513,1.4681,1.4845,1.5012,1.5182,1.535,1.5515,1.5682,1.5846,1.6013,1.6181,1.6349,1.6515]","[1,1,1,1,1,1,1,1,1,1,1,1,1,1,1,1,1,1,1,1,1,1,1,1,1,1,1,1,1,1,1,1,1,1,1,1,1,1,1,1,1,1,1,2,2,2,2,2,2,2,2,2,2,2,2,2,2,2,2,2,2,2,2,2,2,2,2,2,2,2,2,2,2,2,2,2,2,2,2,2,2,2,2,2,2,2,2,2,2,2,2,2,2,2,2,2,2,2,2,2]",15,78.9012,4,28,0,28,0,1,5068,1,SV_6SxWlNLsoRj8nqK,304B,2022-09-27_09h51.54.606,implicit_time,2021.1.4,Linux x86_64,59.95563283
control,112.5,0,0,10,NA,0,NA,0,0,0.5,FALSE,practice,0,"[0.00625,0.00625,0.00625,0.00625,0.00625,0.00625,0.00625,0.00625,0.00625,0.00625,0.00625,0.00625,0.00625,0.00625,0.00625,0.00625,0.00625,0.00625,0.00625,0.004167,0.002083,-0.004167,-0.010417,-0.020833,-0.033333,-0.047917,-0.05625,-0.075,-0.083333,-0.097917,-0.1125,-0.11875,-0.133333,-0.15,-0.15625,-0.172917,-0.185417,-0.191667,-0.202083,-0.210417,-0.214583,-0.222917,-0.23125,-0.235417,-0.241667,-0.247917,-0.25,-0.254167,-0.258333,-0.2625,-0.266667,-0.26875,-0.270833,-0.270833,-0.270833,-0.272917,-0.275,-0.275,-0.275,-0.275,-0.275,-0.275,-0.277083,-0.277083,-0.277083,-0.277083,-0.277083,-0.277083,-0.277083,-0.272917,-0.266667,-0.260417,-0.25625,-0.252083,-0.245833,-0.241667,-0.233333,-0.222917,-0.216667,-0.20625,-0.191667,-0.183333,-0.166667,-0.15,-0.139583,-0.11875,-0.095833,-0.085417,-0.064583,-0.047917,-0.035417]","[-0.020444,-0.020444,-0.020444,-0.020444,-0.020444,-0.020444,-0.020444,-0.020444,-0.020444,-0.020444,-0.020444,-0.020444,-0.020444,-0.020444,-0.020444,-0.020444,-0.020444,-0.020444,-0.020444,-0.020444,-0.017333,-0.011111,-0.001778,0.02,0.054222,0.097778,0.122667,0.178667,0.209778,0.272,0.340444,0.377778,0.446222,0.514667,0.545778,0.608,0.664,0.688889,0.738667,0.782222,0.800889,0.832,0.86,0.872444,0.891111,0.912889,0.922222,0.940889,0.959556,0.968889,0.987556,1,1,1,1,0.996889,0.996889,0.996889,0.996889,0.996889,0.996889,0.996889,0.996889,0.996889,0.996889,1,1,1,1,0.993778,0.975111,0.940889,0.888,0.856889,0.788444,0.751111,0.667111,0.58,0.536444,0.449333,0.365333,0.324889,0.256444,0.194222,0.169333,0.122667,0.085333,0.072889,0.044889,0.023111,0.004444]","[0.0005,0.0166,0.0328,0.0498,0.0661,0.0828,0.0997,0.1161,0.1331,0.1499,0.1662,0.183,0.1995,0.216,0.2333,0.2496,0.2664,0.283,0.3001,0.3165,0.3333,0.3501,0.3668,0.3833,0.4001,0.4172,0.434,0.4507,0.4672,0.4859,0.5009,0.5174,0.5343,0.5516,0.5688,0.5845,0.6012,0.6178,0.6343,0.6512,0.6676,0.6843,0.7012,0.7176,0.7345,0.7513,0.7677,0.7845,0.8012,0.8179,0.8346,0.8513,0.868,0.8859,0.9014,0.9177,0.935,0.9516,0.9675,0.9843,1.0012,1.0177,1.0344,1.0535,1.0685,1.0847,1.1023,1.1181,1.1347,1.1514,1.1706,1.1912,1.2091,1.2254,1.2419,1.2586,1.2753,1.2919,1.3087,1.3253,1.342,1.3587,1.3753,1.3919,1.4087,1.4252,1.4418,1.4585,1.4752,1.492,1.5087]","[1,1,1,1,1,1,1,1,1,1,1,1,1,1,1,1,1,1,1,1,1,1,1,1,1,1,1,1,1,1,1,1,1,1,1,1,1,1,1,1,1,1,1,1,1,1,1,2,2,2,2,2,2,2,2,2,2,2,2,2,2,2,2,2,2,2,2,2,2,2,2,2,2,2,2,2,2,2,2,2,2,2,2,2,2,2,2,2,2,2,2]",15,80.9272,4,29,0,29,0,1,5068,1,SV_6SxWlNLsoRj8nqK,304B,2022-09-27_09h51.54.606,implicit_time,2021.1.4,Linux x86_64,59.95563283
control,45,0,0,10,NA,0,NA,0,1,0.5,FALSE,practice,1,"[0.002083,0,0,0,0,0,0,0,0,0,0,0,0,0,0,0,0,0,0,0,0,0,0,0,0.002083,0.008333,0.014583,0.033333,0.047917,0.083333,0.127083,0.18125,0.210417,0.272917,0.304167,0.366667,0.422917,0.477083,0.5,0.54375,0.5625,0.595833,0.622917,0.647917,0.660417,0.683333,0.69375,0.714583,0.735417,0.745833,0.7625,0.777083,0.7875,0.789583,0.791667,0.791667,0.791667,0.791667,0.789583,0.789583,0.7875,0.7875,0.783333,0.78125,0.777083,0.775,0.766667,0.7625,0.747917,0.725,0.689583,0.666667,0.614583,0.585417,0.525,0.4625,0.402083,0.372917,0.31875,0.29375,0.247917,0.208333,0.175,0.160417,0.1375,0.127083,0.108333,0.09375,0.079167,0.072917,0.060417,0.05625,0.045833,0.035417,0.022917,0.016667,0.00625,0,-0.008333]","[-0.011111,-0.011111,-0.011111,-0.011111,-0.011111,-0.011111,-0.011111,-0.011111,-0.011111,-0.011111,-0.011111,-0.011111,-0.011111,-0.011111,-0.011111,-0.011111,-0.011111,-0.011111,-0.011111,-0.011111,-0.011111,-0.011111,-0.011111,-0.011111,-0.008,0.007556,0.02,0.051111,0.072889,0.119556,0.178667,0.247111,0.281333,0.349778,0.380889,0.44,0.492889,0.533333,0.552,0.58,0.589333,0.604889,0.617333,0.626667,0.629778,0.639111,0.642222,0.648444,0.657778,0.660889,0.667111,0.673333,0.673333,0.673333,0.670222,0.670222,0.670222,0.670222,0.670222,0.670222,0.670222,0.673333,0.673333,0.673333,0.676444,0.676444,0.673333,0.670222,0.660889,0.645333,0.617333,0.601778,0.564444,0.539556,0.492889,0.446222,0.399556,0.377778,0.334222,0.315556,0.278222,0.247111,0.222222,0.209778,0.191111,0.181778,0.169333,0.156889,0.141333,0.135111,0.119556,0.113333,0.100889,0.088444,0.072889,0.063556,0.048,0.041778,0.032444]","[0.0002,0.016,0.0321,0.05,0.0667,0.0833,0.1,0.1158,0.1324,0.1498,0.1656,0.1832,0.199,0.2167,0.2326,0.25,0.2668,0.2824,0.3,0.316,0.3328,0.3495,0.3669,0.3837,0.3995,0.4172,0.4328,0.4496,0.4663,0.4828,0.4997,0.5165,0.5333,0.5499,0.5664,0.5831,0.6004,0.6172,0.6333,0.6498,0.6666,0.6834,0.7,0.7167,0.7333,0.75,0.7667,0.7834,0.8002,0.8169,0.8335,0.8501,0.8668,0.8835,0.9003,0.9169,0.9335,0.9502,0.9668,0.9835,1.0004,1.0171,1.0337,1.0504,1.067,1.0837,1.1004,1.1173,1.1337,1.1506,1.1672,1.1839,1.2006,1.2171,1.2338,1.2508,1.2672,1.2839,1.3008,1.3173,1.334,1.3508,1.3673,1.3841,1.4009,1.4174,1.4341,1.4512,1.4677,1.4843,1.5011,1.5176,1.5343,1.551,1.5677,1.5844,1.6011,1.6176,1.6343]","[1,1,1,1,1,1,1,1,1,1,1,1,1,1,1,1,1,1,1,1,1,1,1,1,1,1,1,1,1,1,1,1,1,1,1,1,1,1,1,1,1,1,1,1,1,1,1,2,2,2,2,2,2,2,2,2,2,2,2,2,2,2,2,2,2,2,2,2,2,2,2,2,2,2,2,2,2,2,2,2,2,2,2,2,2,2,2,2,2,2,2,2,2,2,2,2,2,2,2]",16,83.0792,4,30,0,30,0,1,5068,1,SV_6SxWlNLsoRj8nqK,304B,2022-09-27_09h51.54.606,implicit_time,2021.1.4,Linux x86_64,59.95563283
control,52.5,0,0,10,NA,0,NA,0,0,0.5,FALSE,practice,0,"[-0.008333,-0.008333,-0.008333,-0.008333,-0.008333,-0.008333,-0.008333,-0.008333,-0.008333,-0.008333,-0.008333,-0.008333,-0.008333,-0.008333,-0.008333,-0.008333,-0.008333,-0.008333,-0.008333,-0.008333,-0.008333,-0.00625,-0.004167,0.00625,0.029167,0.045833,0.083333,0.13125,0.15625,0.2125,0.275,0.30625,0.370833,0.425,0.45,0.49375,0.533333,0.55,0.579167,0.59375,0.597917,0.597917,0.595833,0.59375,0.591667,0.589583,0.5875,0.5875,0.5875,0.5875,0.5875,0.5875,0.5875,0.5875,0.5875,0.5875,0.5875,0.5875,0.5875,0.585417,0.575,0.564583,0.529167,0.504167,0.45,0.389583,0.329167,0.297917,0.239583,0.2125,0.164583,0.127083,0.097917,0.085417,0.064583,0.054167,0.041667,0.03125,0.025,0.022917,0.01875,0.016667,0.0125,0.008333]","[0.001333,0.001333,0.001333,0.001333,0.001333,0.001333,0.001333,0.001333,0.001333,0.001333,0.001333,0.001333,0.001333,0.001333,0.001333,0.001333,0.001333,0.001333,0.001333,0.001333,0.001333,0.004444,0.010667,0.032444,0.072889,0.100889,0.169333,0.240889,0.278222,0.362222,0.446222,0.489778,0.573778,0.642222,0.670222,0.72,0.763556,0.782222,0.813333,0.832,0.835111,0.835111,0.835111,0.835111,0.838222,0.841333,0.841333,0.841333,0.841333,0.841333,0.841333,0.841333,0.841333,0.841333,0.841333,0.841333,0.841333,0.841333,0.841333,0.838222,0.816444,0.797778,0.744889,0.713778,0.642222,0.561333,0.477333,0.436889,0.359111,0.321778,0.256444,0.203556,0.163111,0.147556,0.119556,0.107111,0.088444,0.076,0.066667,0.063556,0.057333,0.051111,0.044889,0.032444]","[0.0003,0.0153,0.0329,0.0494,0.0658,0.0827,0.0995,0.1157,0.1321,0.1495,0.1658,0.183,0.1995,0.2153,0.2319,0.2495,0.2663,0.2829,0.2987,0.3153,0.3329,0.3496,0.3655,0.3822,0.3988,0.4157,0.4321,0.4488,0.4657,0.4824,0.4991,0.5157,0.5323,0.549,0.5657,0.5824,0.5992,0.6159,0.6323,0.6492,0.666,0.6826,0.6992,0.7158,0.7325,0.7492,0.7659,0.7828,0.7993,0.8159,0.8328,0.8493,0.8659,0.8828,0.8995,0.9157,0.9327,0.9495,0.9664,0.9829,0.9996,1.0161,1.033,1.0498,1.0664,1.0832,1.0999,1.1163,1.133,1.1499,1.1665,1.1832,1.1999,1.2164,1.2331,1.2499,1.2664,1.2832,1.2999,1.3165,1.3332,1.3501,1.3667,1.3836]","[1,1,1,1,1,1,1,1,1,1,1,1,1,1,1,1,1,1,1,1,1,1,1,1,1,1,1,1,1,1,1,1,1,1,1,1,1,1,2,2,2,2,2,2,2,2,2,2,2,2,2,2,2,2,2,2,2,2,2,2,2,2,2,2,2,2,2,2,2,2,2,2,2,2,2,2,2,2,2,2,2,2,2,2]",16,84.9808,4,31,0,31,0,1,5068,1,SV_6SxWlNLsoRj8nqK,304B,2022-09-27_09h51.54.606,implicit_time,2021.1.4,Linux x86_64,59.95563283
