condition_label,target,rotation_deg,cursorjump,targetjump,arrow_offset,aiming_target,aiming_direction,aiming_type,feedback_type,hold_duration,hold_target,phase,trialtype,mousex_rel,mousey_rel,mouse_time,step,points,cumulativetime,version,trials.thisRepN,trials.thisTrialN,trials.thisN,trials.thisIndex,trials.ran,participant,condition,qualtrics,group,date,expName,psychopyVersion,OS,frameRate
cursorjump,135,0,0.5,10,NA,0,NA,0,1,0.5,FALSE,practice,1,"[-0.014583,-0.014583,-0.014583,-0.014583,-0.014583,-0.014583,-0.014583,-0.014583,-0.0125,-0.0125,-0.0125,-0.014583,-0.014583,-0.014583,-0.014583,-0.014583,-0.014583,-0.014583,-0.014583,-0.014583,-0.0125,-0.0125,-0.0125,-0.0125,-0.014583,-0.016667,-0.01875,-0.022917,-0.027083,-0.029167,-0.033333,-0.033333,-0.035417,-0.035417,-0.0375,-0.039583,-0.04375,-0.045833,-0.052083,-0.060417,-0.070833,-0.075,-0.083333,-0.0875,-0.091667,-0.09375,-0.09375,-0.095833,-0.102083,-0.108333,-0.127083,-0.158333,-0.1625,-0.172917,-0.191667,-0.202083,-0.233333,-0.270833,-0.289583,-0.325,-0.3625,-0.383333,-0.422917,-0.45625,-0.46875,-0.49375,-0.51875,-0.53125,-0.55625,-0.58125,-0.591667,-0.610417,-0.622917,-0.629167,-0.641667,-0.654167,-0.658333,-0.660417,-0.6625,-0.6625,-0.664583,-0.66875,-0.670833,-0.677083,-0.68125,-0.683333,-0.685417,-0.6875,-0.6875,-0.691667,-0.695833,-0.695833,-0.697917,-0.697917,-0.697917,-0.7,-0.702083,-0.70625,-0.70625,-0.708333,-0.708333,-0.710417,-0.708333,-0.708333,-0.708333,-0.708333,-0.708333,-0.70625,-0.702083,-0.695833,-0.691667,-0.68125,-0.675,-0.658333,-0.65,-0.63125,-0.610417,-0.5875,-0.577083,-0.558333,-0.547917,-0.529167,-0.50625,-0.483333,-0.46875,-0.44375,-0.43125,-0.408333,-0.3875,-0.366667,-0.358333,-0.34375,-0.335417,-0.325,-0.310417,-0.29375,-0.283333,-0.260417,-0.25,-0.23125,-0.210417,-0.191667,-0.18125,-0.166667,-0.1625,-0.154167,-0.145833,-0.133333,-0.122917,-0.10625,-0.097917,-0.085417,-0.077083,-0.070833,-0.066667,-0.060417,-0.05625,-0.05,-0.045833,-0.039583,-0.0375,-0.03125,-0.029167,-0.027083,-0.025]","[-0.004889,-0.004889,-0.004889,-0.004889,-0.004889,-0.004889,-0.004889,-0.004889,-0.004889,-0.004889,-0.004889,-0.004889,-0.004889,-0.004889,-0.004889,-0.004889,-0.004889,-0.004889,-0.004889,-0.004889,-0.004889,-0.004889,-0.004889,-0.004889,0.001333,0.007556,0.023111,0.048,0.076,0.091556,0.119556,0.132,0.16,0.194222,0.231556,0.250222,0.287556,0.303111,0.334222,0.362222,0.390222,0.405778,0.430667,0.436889,0.446222,0.449333,0.449333,0.449333,0.44,0.430667,0.405778,0.318667,0.315556,0.312444,0.3,0.290667,0.265778,0.247111,0.244,0.247111,0.262667,0.272,0.293778,0.315556,0.324889,0.346667,0.365333,0.371556,0.384,0.396444,0.405778,0.418222,0.436889,0.443111,0.461778,0.480444,0.489778,0.508444,0.530222,0.552,0.558222,0.570667,0.576889,0.589333,0.604889,0.611111,0.623556,0.636,0.642222,0.648444,0.657778,0.667111,0.673333,0.682667,0.685778,0.692,0.695111,0.698222,0.701333,0.701333,0.701333,0.701333,0.704444,0.704444,0.704444,0.704444,0.701333,0.698222,0.685778,0.670222,0.660889,0.636,0.620444,0.592444,0.573778,0.533333,0.496,0.458667,0.44,0.402667,0.384,0.352889,0.318667,0.287556,0.272,0.247111,0.237778,0.219111,0.200444,0.184889,0.178667,0.163111,0.16,0.147556,0.138222,0.122667,0.116444,0.100889,0.094667,0.082222,0.069778,0.057333,0.048,0.035556,0.029333,0.016889,0.004444,-0.004889,-0.011111,-0.017333,-0.020444,-0.026667,-0.026667,-0.026667,-0.029778,-0.029778,-0.029778,-0.032889,-0.032889,-0.032889,-0.032889,-0.032889,-0.032889,-0.032889,-0.029778]","[0.0009,0.0306,0.0355,0.0486,0.066,0.0823,0.0992,0.1154,0.1321,0.1488,0.1657,0.182,0.1987,0.2154,0.2322,0.2489,0.266,0.2827,0.299,0.3155,0.3324,0.3489,0.3658,0.3825,0.399,0.4158,0.4324,0.449,0.4657,0.4826,0.4992,0.5158,0.5324,0.5493,0.5659,0.5826,0.5994,0.6161,0.6327,0.6493,0.666,0.6825,0.6995,0.7161,0.7326,0.7493,0.7662,0.7827,0.7997,0.8163,0.833,0.8495,0.8665,0.8829,0.8996,0.9164,0.9331,0.9498,0.9663,0.9831,0.9997,1.0164,1.0333,1.0502,1.0665,1.0832,1.0998,1.1167,1.1333,1.15,1.1666,1.1834,1.2002,1.2167,1.2333,1.2502,1.2668,1.2831,1.3007,1.3173,1.3336,1.3499,1.3666,1.3833,1.4,1.4164,1.4338,1.45,1.4666,1.4831,1.4999,1.5169,1.5335,1.5505,1.5667,1.5836,1.6,1.6171,1.6335,1.6502,1.6666,1.6836,1.7007,1.7168,1.7337,1.7502,1.7668,1.7836,1.8003,1.817,1.834,1.8502,1.8672,1.8835,1.9004,1.9193,1.9354,1.9507,1.9674,1.9839,2.0006,2.0171,2.0342,2.0506,2.0672,2.0839,2.1005,2.1172,2.1343,2.1505,2.1674,2.1835,2.2007,2.2173,2.2341,2.2502,2.2671,2.2837,2.3007,2.3177,2.3337,2.3505,2.3671,2.3841,2.4008,2.4171,2.4338,2.4506,2.4671,2.4841,2.5004,2.5172,2.5341,2.5506,2.5672,2.5839,2.6009,2.6175,2.6341,2.6508,2.6674,2.6842,2.7008,2.7174,2.7343]","[1,1,1,1,1,1,1,1,1,1,1,1,1,1,1,1,1,1,1,1,1,1,1,1,1,1,1,1,1,1,1,1,1,1,1,1,1,1,1,1,1,1,1,1,1,1,1,1,1,1,1,1,1,1,1,1,1,1,1,1,1,1,1,1,1,1,1,1,1,1,1,1,1,1,1,1,1,1,1,1,1,1,1,1,1,1,1,1,1,1,1,2,2,2,2,2,2,2,2,2,2,2,2,2,2,2,2,2,2,2,2,2,2,2,2,2,2,2,2,2,2,2,2,2,2,2,2,2,2,2,2,2,2,2,2,2,2,2,2,2,2,2,2,2,2,2,2,2,2,2,2,2,2,2,2,2,2,2,2,2,2,2,2,2,2]",0,15.5962,4,0,0,0,0,1,good 2,4,SV_6SxWlNLsoRj8nqK,304B,2022-06-16_14h49.37.328,implicit_time,2021.1.4,Linux x86_64,59.95563283
cursorjump,127.5,0,0,10,NA,0,NA,0,0,0.5,FALSE,practice,0,"[0,0,0,0,0,0,0.002083,0.002083,0.004167,0.004167,0.004167,0.004167,0.004167,0.002083,0.002083,0.002083,0.002083,0.002083,0.002083,0.004167,0.004167,0.004167,0.004167,0.004167,0.004167,0.004167,-0.002083,-0.01875,-0.03125,-0.060417,-0.077083,-0.1125,-0.15,-0.185417,-0.202083,-0.233333,-0.25,-0.283333,-0.325,-0.36875,-0.3875,-0.420833,-0.433333,-0.4625,-0.49375,-0.525,-0.539583,-0.566667,-0.579167,-0.602083,-0.6125,-0.6125,-0.6125,-0.6125,-0.6125,-0.6125,-0.610417,-0.610417,-0.610417,-0.610417,-0.610417,-0.610417,-0.610417,-0.610417,-0.60625,-0.59375,-0.585417,-0.564583,-0.539583,-0.527083,-0.5,-0.472917,-0.458333,-0.429167,-0.397917,-0.383333,-0.35625,-0.335417,-0.325,-0.310417,-0.297917,-0.291667,-0.283333,-0.275,-0.270833,-0.266667,-0.264583,-0.2625,-0.258333,-0.25625,-0.25625,-0.254167,-0.254167,-0.252083,-0.25,-0.24375,-0.241667,-0.233333,-0.220833,-0.214583,-0.197917,-0.18125,-0.170833,-0.152083,-0.135417,-0.129167,-0.120833,-0.1125,-0.108333,-0.095833,-0.083333,-0.079167,-0.075,-0.06875,-0.064583,-0.05625,-0.05,-0.045833,-0.04375,-0.04375,-0.04375,-0.041667,-0.041667,-0.039583,-0.035417,-0.029167]","[-0.017333,-0.017333,-0.014222,-0.014222,-0.014222,-0.014222,-0.011111,-0.004889,-0.001778,-0.001778,-0.001778,-0.001778,-0.001778,-0.001778,-0.001778,-0.001778,-0.001778,-0.001778,-0.001778,-0.001778,-0.001778,-0.001778,-0.004889,-0.004889,-0.004889,-0.004889,-0.001778,0.010667,0.02,0.044889,0.060444,0.100889,0.150667,0.209778,0.240889,0.312444,0.346667,0.415111,0.480444,0.539556,0.570667,0.626667,0.651556,0.698222,0.738667,0.776,0.791556,0.822667,0.838222,0.863111,0.875556,0.875556,0.875556,0.875556,0.875556,0.872444,0.872444,0.872444,0.872444,0.872444,0.872444,0.872444,0.872444,0.872444,0.866222,0.853778,0.841333,0.810222,0.769778,0.741778,0.676444,0.601778,0.561333,0.474222,0.390222,0.349778,0.272,0.206667,0.178667,0.132,0.094667,0.079111,0.051111,0.026222,0.013778,-0.008,-0.026667,-0.032889,-0.048444,-0.057778,-0.060889,-0.064,-0.070222,-0.070222,-0.076444,-0.079556,-0.082667,-0.079556,-0.073333,-0.070222,-0.064,-0.057778,-0.054667,-0.048444,-0.048444,-0.045333,-0.045333,-0.042222,-0.042222,-0.032889,-0.023556,-0.020444,-0.020444,-0.023556,-0.026667,-0.029778,-0.032889,-0.036,-0.036,-0.036,-0.036,-0.036,-0.036,-0.032889,-0.026667,-0.020444]","[0.0004,0.0168,0.0332,0.0497,0.0666,0.0835,0.1002,0.1168,0.1331,0.1499,0.167,0.1836,0.2003,0.2167,0.2331,0.25,0.2667,0.2835,0.3003,0.3169,0.3333,0.3502,0.3671,0.3833,0.4002,0.4172,0.434,0.4506,0.4668,0.4842,0.5005,0.5169,0.5341,0.5507,0.5668,0.5838,0.6008,0.6174,0.6341,0.6508,0.6668,0.6838,0.7006,0.7183,0.7335,0.7505,0.767,0.7837,0.8008,0.8184,0.8341,0.8509,0.8673,0.8839,0.9005,0.9172,0.9343,0.9511,0.9669,0.9839,1.0007,1.0173,1.0341,1.0507,1.067,1.0836,1.1007,1.117,1.1337,1.1509,1.1673,1.1841,1.2004,1.2171,1.234,1.2505,1.2673,1.2839,1.3009,1.3174,1.3339,1.3505,1.3671,1.3838,1.4007,1.4179,1.4339,1.4507,1.4673,1.4842,1.5007,1.5174,1.5343,1.5507,1.5673,1.5842,1.6011,1.6176,1.6342,1.6508,1.6675,1.6844,1.7011,1.7176,1.7344,1.7509,1.7677,1.7844,1.8012,1.8177,1.8345,1.851,1.8677,1.8847,1.9012,1.918,1.9347,1.9514,1.968,1.9848,2.0014,2.0179,2.0346,2.0512,2.0681,2.0847]","[1,1,1,1,1,1,1,1,1,1,1,1,1,1,1,1,1,1,1,1,1,1,1,1,1,1,1,1,1,1,1,1,1,1,1,1,1,1,1,1,1,1,1,1,1,1,1,2,2,2,2,2,2,2,2,2,2,2,2,2,2,2,2,2,2,2,2,2,2,2,2,2,2,2,2,2,2,2,2,2,2,2,2,2,2,2,2,2,2,2,2,2,2,2,2,2,2,2,2,2,2,2,2,2,2,2,2,2,2,2,2,2,2,2,2,2,2,2,2,2,2,2,2,2,2,2]",0,18.1976,4,1,0,1,0,1,good 2,4,SV_6SxWlNLsoRj8nqK,304B,2022-06-16_14h49.37.328,implicit_time,2021.1.4,Linux x86_64,59.95563283
cursorjump,105,0,0.5,10,NA,0,NA,0,1,0.5,FALSE,practice,1,"[0.010417,0.010417,0.010417,0.010417,0.010417,0.010417,0.010417,0.010417,0.010417,0.010417,0.010417,0.010417,0.010417,0.010417,0.010417,0.010417,0.010417,0.010417,0.010417,0.010417,0.008333,0.00625,-0.002083,-0.008333,-0.01875,-0.03125,-0.045833,-0.054167,-0.075,-0.085417,-0.110417,-0.13125,-0.15,-0.158333,-0.170833,-0.177083,-0.177083,-0.175,-0.170833,-0.170833,-0.179167,-0.1875,-0.202083,-0.20625,-0.208333,-0.208333,-0.208333,-0.208333,-0.208333,-0.20625,-0.20625,-0.20625,-0.208333,-0.208333,-0.208333,-0.204167,-0.2,-0.1875,-0.179167,-0.177083,-0.177083,-0.177083,-0.175,-0.1625,-0.147917,-0.139583,-0.135417,-0.13125,-0.13125,-0.133333,-0.135417,-0.13125,-0.129167,-0.120833,-0.114583,-0.10625,-0.097917,-0.0875,-0.08125,-0.072917,-0.070833,-0.066667,-0.064583,-0.0625,-0.060417,-0.05625,-0.054167,-0.052083,-0.045833,-0.039583,-0.035417,-0.03125,-0.029167,-0.025,-0.022917]","[0.007556,0.007556,0.007556,0.007556,0.007556,0.007556,0.007556,0.007556,0.007556,0.007556,0.007556,0.007556,0.007556,0.007556,0.007556,0.007556,0.007556,0.007556,0.007556,0.007556,0.010667,0.013778,0.026222,0.038667,0.069778,0.119556,0.181778,0.219111,0.293778,0.334222,0.424444,0.514667,0.608,0.651556,0.738667,0.819556,0.86,0.931556,0.990667,1.009333,1.021778,1.018667,1.015556,1.012444,1.012444,1.012444,1.009333,1.009333,1.009333,1.009333,1.009333,1.009333,1.009333,1.009333,1.009333,1.009333,1.003111,0.987556,0.950222,0.891111,0.856889,0.782222,0.748,0.685778,0.629778,0.570667,0.542667,0.486667,0.458667,0.408889,0.365333,0.328,0.312444,0.281333,0.268889,0.244,0.222222,0.206667,0.200444,0.194222,0.191111,0.181778,0.166222,0.147556,0.135111,0.113333,0.104,0.088444,0.072889,0.057333,0.051111,0.044889,0.041778,0.038667,0.032444]","[0.0003,0.016,0.033,0.0497,0.0663,0.083,0.0999,0.1165,0.133,0.1498,0.166,0.1832,0.1999,0.2164,0.2326,0.25,0.2661,0.2833,0.3,0.3162,0.3329,0.3497,0.3662,0.383,0.3997,0.4161,0.4329,0.4495,0.4669,0.4829,0.4996,0.5162,0.5329,0.5496,0.5667,0.5833,0.6,0.6166,0.6333,0.6503,0.6669,0.6832,0.6999,0.7165,0.7333,0.7498,0.7669,0.783,0.8001,0.8166,0.8335,0.8502,0.8664,0.8835,0.9001,0.9164,0.9335,0.9498,0.9666,0.9832,1,1.0169,1.0336,1.05,1.0666,1.0833,1.1001,1.1168,1.1334,1.1501,1.1666,1.1833,1.2001,1.2169,1.2335,1.2502,1.2668,1.2836,1.3004,1.3168,1.3335,1.3503,1.3669,1.3836,1.4004,1.4171,1.4337,1.4504,1.467,1.4836,1.5003,1.5171,1.5339,1.5506,1.5673]","[1,1,1,1,1,1,1,1,1,1,1,1,1,1,1,1,1,1,1,1,1,1,1,1,1,1,1,1,1,1,1,1,1,1,1,1,1,1,2,2,2,2,2,2,2,2,2,2,2,2,2,2,2,2,2,2,2,2,2,2,2,2,2,2,2,2,2,2,2,2,2,2,2,2,2,2,2,2,2,2,2,2,2,2,2,2,2,2,2,2,2,2,2,2,2]",1,20.2822,4,2,0,2,0,1,good 2,4,SV_6SxWlNLsoRj8nqK,304B,2022-06-16_14h49.37.328,implicit_time,2021.1.4,Linux x86_64,59.95563283
cursorjump,112.5,0,0,10,NA,0,NA,0,0,0.5,FALSE,practice,0,"[-0.002083,-0.002083,-0.002083,-0.002083,-0.002083,-0.002083,-0.002083,-0.002083,-0.002083,-0.002083,-0.002083,-0.002083,-0.002083,-0.002083,-0.002083,-0.002083,-0.002083,-0.002083,-0.004167,-0.010417,-0.022917,-0.03125,-0.054167,-0.0875,-0.10625,-0.14375,-0.18125,-0.202083,-0.239583,-0.266667,-0.277083,-0.285417,-0.295833,-0.304167,-0.320833,-0.335417,-0.341667,-0.354167,-0.364583,-0.366667,-0.372917,-0.377083,-0.379167,-0.383333,-0.385417,-0.385417,-0.3875,-0.3875,-0.3875,-0.385417,-0.385417,-0.385417,-0.383333,-0.377083,-0.370833,-0.360417,-0.354167,-0.339583,-0.327083,-0.316667,-0.308333,-0.289583,-0.277083,-0.254167,-0.233333,-0.216667,-0.210417,-0.19375,-0.185417,-0.170833,-0.160417,-0.154167,-0.152083,-0.145833,-0.141667,-0.139583,-0.1375,-0.135417,-0.135417,-0.135417,-0.133333,-0.129167,-0.122917,-0.116667,-0.114583,-0.102083,-0.09375,-0.072917,-0.054167,-0.039583]","[-0.020444,-0.020444,-0.020444,-0.020444,-0.020444,-0.020444,-0.020444,-0.020444,-0.020444,-0.020444,-0.020444,-0.020444,-0.020444,-0.020444,-0.020444,-0.020444,-0.017333,-0.014222,0.004444,0.035556,0.082222,0.107111,0.166222,0.234667,0.275111,0.356,0.44,0.477333,0.552,0.623556,0.660889,0.732444,0.788444,0.810222,0.844444,0.869333,0.881778,0.900444,0.919111,0.925333,0.937778,0.956444,0.962667,0.975111,0.975111,0.975111,0.975111,0.975111,0.975111,0.975111,0.975111,0.972,0.968889,0.956444,0.944,0.909778,0.888,0.828889,0.754222,0.667111,0.620444,0.524,0.474222,0.377778,0.281333,0.194222,0.156889,0.094667,0.066667,0.026222,-0.008,-0.029778,-0.039111,-0.051556,-0.054667,-0.057778,-0.060889,-0.060889,-0.060889,-0.060889,-0.060889,-0.057778,-0.057778,-0.051556,-0.048444,-0.032889,-0.023556,-0.011111,-0.004889,-0.011111]","[0.0003,0.0165,0.0333,0.0499,0.0666,0.083,0.0998,0.1164,0.1335,0.15,0.1664,0.1832,0.2001,0.2167,0.2331,0.2501,0.2667,0.283,0.2997,0.3165,0.3332,0.3503,0.3671,0.3836,0.4003,0.417,0.4338,0.4504,0.4669,0.4837,0.5004,0.5172,0.5339,0.5504,0.5671,0.5837,0.6006,0.6172,0.6336,0.6503,0.6673,0.6839,0.7005,0.7173,0.734,0.7504,0.7671,0.7841,0.8004,0.8172,0.8341,0.8505,0.8671,0.8841,0.9009,0.9171,0.934,0.9513,0.9672,0.9839,1.0007,1.0174,1.034,1.0507,1.0685,1.085,1.1009,1.1179,1.1339,1.1511,1.1674,1.1839,1.2007,1.2175,1.2343,1.2509,1.2673,1.2841,1.3008,1.3175,1.3342,1.351,1.3677,1.3844,1.401,1.4176,1.4343,1.4512,1.4677,1.4844]","[1,1,1,1,1,1,1,1,1,1,1,1,1,1,1,1,1,1,1,1,1,1,1,1,1,1,1,1,1,1,1,1,1,1,1,1,1,2,2,2,2,2,2,2,2,2,2,2,2,2,2,2,2,2,2,2,2,2,2,2,2,2,2,2,2,2,2,2,2,2,2,2,2,2,2,2,2,2,2,2,2,2,2,2,2,2,2,2,2,2]",1,22.2841,4,3,0,3,0,1,good 2,4,SV_6SxWlNLsoRj8nqK,304B,2022-06-16_14h49.37.328,implicit_time,2021.1.4,Linux x86_64,59.95563283
cursorjump,45,0,0.5,10,NA,0,NA,0,1,0.5,FALSE,practice,1,"[-0.004167,-0.004167,-0.004167,-0.004167,-0.004167,-0.004167,-0.004167,-0.004167,-0.004167,-0.004167,-0.004167,-0.004167,-0.004167,-0.004167,-0.004167,-0.004167,-0.004167,-0.004167,-0.004167,-0.002083,0.002083,0.00625,0.033333,0.054167,0.10625,0.166667,0.227083,0.260417,0.327083,0.3625,0.429167,0.4875,0.539583,0.564583,0.61875,0.645833,0.702083,0.75,0.785417,0.797917,0.816667,0.825,0.839583,0.84375,0.845833,0.847917,0.84375,0.84375,0.841667,0.839583,0.839583,0.8375,0.829167,0.820833,0.795833,0.766667,0.733333,0.716667,0.672917,0.647917,0.591667,0.53125,0.475,0.447917,0.39375,0.366667,0.320833,0.28125,0.245833,0.23125,0.2,0.1875,0.1625,0.15,0.129167,0.104167,0.08125,0.070833,0.058333,0.05,0.045833,0.035417,0.027083,0.022917,0.01875,0.01875,0.016667,0.014583]","[-0.004889,-0.004889,-0.004889,-0.004889,-0.004889,-0.004889,-0.004889,-0.004889,-0.004889,-0.004889,-0.004889,-0.004889,-0.004889,-0.004889,-0.004889,-0.004889,-0.004889,-0.004889,-0.004889,-0.001778,0.004444,0.013778,0.048,0.076,0.138222,0.200444,0.262667,0.293778,0.356,0.384,0.436889,0.477333,0.508444,0.520889,0.548889,0.561333,0.586222,0.604889,0.620444,0.623556,0.632889,0.636,0.639111,0.642222,0.642222,0.642222,0.645333,0.648444,0.648444,0.651556,0.651556,0.651556,0.648444,0.645333,0.636,0.617333,0.598667,0.586222,0.555111,0.533333,0.489778,0.446222,0.402667,0.380889,0.343556,0.324889,0.290667,0.265778,0.244,0.234667,0.212889,0.203556,0.181778,0.175556,0.16,0.138222,0.116444,0.104,0.088444,0.079111,0.076,0.066667,0.060444,0.057333,0.051111,0.048,0.041778,0.029333]","[0.0002,0.0164,0.0327,0.0495,0.0663,0.0831,0.0996,0.1163,0.1332,0.15,0.1665,0.183,0.1998,0.2164,0.2332,0.2499,0.2669,0.2832,0.3003,0.3168,0.3335,0.3502,0.367,0.3835,0.4003,0.417,0.4335,0.4504,0.467,0.4837,0.5004,0.5171,0.5338,0.5507,0.567,0.5839,0.6004,0.6173,0.6341,0.6507,0.6671,0.6838,0.7006,0.7172,0.7338,0.7509,0.7673,0.7839,0.8006,0.8172,0.8338,0.8509,0.8674,0.884,0.9009,0.9174,0.934,0.9507,0.9675,0.9841,1.0009,1.0175,1.0342,1.0505,1.0677,1.0847,1.1011,1.1177,1.1346,1.1504,1.1679,1.1847,1.2012,1.2179,1.2339,1.2515,1.268,1.284,1.3013,1.3181,1.334,1.3508,1.3677,1.3849,1.4016,1.4174,1.4343,1.451]","[1,1,1,1,1,1,1,1,1,1,1,1,1,1,1,1,1,1,1,1,1,1,1,1,1,1,1,1,1,1,1,1,1,1,1,1,1,2,2,2,2,2,2,2,2,2,2,2,2,2,2,2,2,2,2,2,2,2,2,2,2,2,2,2,2,2,2,2,2,2,2,2,2,2,2,2,2,2,2,2,2,2,2,2,2,2,2,2]",2,24.2527,4,4,0,4,0,1,good 2,4,SV_6SxWlNLsoRj8nqK,304B,2022-06-16_14h49.37.328,implicit_time,2021.1.4,Linux x86_64,59.95563283
cursorjump,52.5,0,0,10,NA,0,NA,0,0,0.5,FALSE,practice,0,"[-0.002083,-0.004167,-0.00625,-0.008333,-0.008333,-0.010417,-0.010417,-0.010417,-0.010417,-0.0125,-0.0125,-0.0125,-0.014583,-0.014583,-0.016667,-0.01875,-0.016667,-0.014583,-0.008333,-0.00625,0.004167,0.025,0.041667,0.089583,0.116667,0.175,0.235417,0.297917,0.333333,0.408333,0.445833,0.5125,0.5625,0.60625,0.629167,0.672917,0.683333,0.683333,0.68125,0.68125,0.68125,0.68125,0.68125,0.68125,0.68125,0.68125,0.68125,0.68125,0.683333,0.68125,0.66875,0.64375,0.625,0.56875,0.533333,0.45625,0.377083,0.310417,0.28125,0.229167,0.20625,0.170833,0.139583,0.116667,0.108333,0.095833,0.089583,0.083333,0.075,0.070833,0.06875,0.06875,0.06875,0.06875,0.06875,0.064583,0.064583,0.058333,0.05625,0.045833,0.03125,0.016667,0.008333]","[-0.008,-0.004889,-0.001778,0.004444,0.007556,0.007556,0.007556,0.007556,0.010667,0.010667,0.010667,0.013778,0.013778,0.016889,0.026222,0.051111,0.066667,0.113333,0.150667,0.166222,0.191111,0.225333,0.244,0.293778,0.318667,0.365333,0.412,0.464889,0.496,0.558222,0.589333,0.648444,0.692,0.732444,0.751111,0.782222,0.791556,0.794667,0.794667,0.794667,0.794667,0.794667,0.794667,0.794667,0.794667,0.794667,0.797778,0.794667,0.791556,0.779111,0.754222,0.716889,0.692,0.629778,0.589333,0.505333,0.412,0.321778,0.278222,0.203556,0.169333,0.110222,0.063556,0.026222,0.013778,-0.008,-0.017333,-0.032889,-0.045333,-0.054667,-0.057778,-0.060889,-0.060889,-0.060889,-0.060889,-0.060889,-0.060889,-0.060889,-0.057778,-0.054667,-0.045333,-0.039111,-0.032889]","[0.0003,0.0165,0.0329,0.0496,0.0663,0.0829,0.0995,0.1164,0.1332,0.1499,0.1664,0.1831,0.1998,0.2165,0.233,0.2498,0.2665,0.2829,0.3,0.3165,0.3335,0.3497,0.3669,0.383,0.4,0.4168,0.4334,0.4499,0.4668,0.4831,0.5001,0.5171,0.5335,0.55,0.5669,0.5837,0.6005,0.6169,0.6337,0.6502,0.6667,0.6832,0.7001,0.7168,0.7338,0.7501,0.7671,0.7838,0.8005,0.8169,0.834,0.8503,0.8671,0.8839,0.9005,0.9174,0.9337,0.9506,0.9672,0.9839,1.0003,1.0167,1.0335,1.0503,1.0671,1.0839,1.1005,1.1171,1.1337,1.1504,1.1673,1.1838,1.2003,1.217,1.2336,1.2504,1.2671,1.2837,1.3004,1.3184,1.3334,1.351,1.3676]","[1,1,1,1,1,1,1,1,1,1,1,1,1,1,1,1,1,1,1,1,1,1,1,1,1,1,1,1,1,1,1,1,1,1,2,2,2,2,2,2,2,2,2,2,2,2,2,2,2,2,2,2,2,2,2,2,2,2,2,2,2,2,2,2,2,2,2,2,2,2,2,2,2,2,2,2,2,2,2,2,2,2,2]",2,26.1382,4,5,0,5,0,1,good 2,4,SV_6SxWlNLsoRj8nqK,304B,2022-06-16_14h49.37.328,implicit_time,2021.1.4,Linux x86_64,59.95563283
cursorjump,75,0,0.5,10,NA,0,NA,0,1,0.5,FALSE,practice,1,"[0.016667,0.016667,0.016667,0.016667,0.016667,0.016667,0.014583,0.014583,0.0125,0.010417,0.008333,0.00625,0.004167,0.002083,0.002083,0.002083,0.002083,0.002083,0.002083,0.002083,0.002083,0.002083,0.004167,0.004167,0.008333,0.0125,0.027083,0.05,0.066667,0.10625,0.154167,0.18125,0.235417,0.285417,0.30625,0.341667,0.370833,0.39375,0.404167,0.425,0.433333,0.454167,0.477083,0.497917,0.50625,0.514583,0.5125,0.5,0.4875,0.479167,0.4625,0.44375,0.43125,0.408333,0.395833,0.375,0.35625,0.341667,0.335417,0.322917,0.314583,0.295833,0.270833,0.245833,0.235417,0.214583,0.20625,0.189583,0.170833,0.15,0.139583,0.120833,0.1125,0.09375,0.077083,0.064583,0.0625,0.058333,0.058333,0.058333,0.054167,0.045833,0.04375,0.0375,0.035417,0.027083]","[0.004444,0.004444,0.004444,0.004444,0.004444,0.004444,0.001333,0.001333,-0.001778,-0.001778,-0.001778,-0.001778,-0.001778,-0.001778,-0.001778,-0.001778,-0.001778,-0.001778,-0.001778,-0.001778,-0.001778,-0.001778,-0.001778,0.004444,0.023111,0.041778,0.088444,0.153778,0.188,0.265778,0.349778,0.390222,0.468,0.539556,0.570667,0.626667,0.670222,0.710667,0.729333,0.760444,0.776,0.804,0.832,0.86,0.875556,0.894222,0.900444,0.906667,0.912889,0.916,0.925333,0.931556,0.934667,0.937778,0.937778,0.934667,0.934667,0.934667,0.937778,0.934667,0.934667,0.922222,0.894222,0.853778,0.828889,0.772889,0.744889,0.688889,0.629778,0.564444,0.533333,0.468,0.44,0.377778,0.318667,0.262667,0.237778,0.194222,0.175556,0.138222,0.100889,0.066667,0.051111,0.032444,0.026222,0.013778]","[0.0006,0.0162,0.0329,0.0494,0.066,0.0828,0.0995,0.1163,0.1331,0.1495,0.1662,0.183,0.1998,0.2164,0.2331,0.2492,0.2658,0.283,0.2997,0.3165,0.3327,0.3497,0.3664,0.383,0.3999,0.4166,0.4333,0.4498,0.4666,0.4834,0.5,0.5167,0.5334,0.5502,0.5679,0.5837,0.6002,0.617,0.6335,0.6499,0.6666,0.6836,0.7004,0.717,0.7338,0.7502,0.7682,0.7839,0.8001,0.8172,0.8335,0.8501,0.8667,0.8836,0.9005,0.9171,0.934,0.9503,0.967,0.9878,1.0012,1.0181,1.0348,1.0514,1.0673,1.0838,1.1006,1.117,1.1338,1.1508,1.1673,1.1836,1.2004,1.2171,1.2338,1.2507,1.2673,1.2837,1.3004,1.3172,1.334,1.3504,1.3675,1.3838,1.4005,1.4172]","[1,1,1,1,1,1,1,1,1,1,1,1,1,1,1,1,1,1,1,1,1,1,1,1,1,1,1,1,1,1,1,1,1,1,1,1,1,1,1,1,1,1,2,2,2,2,2,2,2,2,2,2,2,2,2,2,2,2,2,2,2,2,2,2,2,2,2,2,2,2,2,2,2,2,2,2,2,2,2,2,2,2,2,2,2,2]",3,28.0726,4,6,0,6,0,1,good 2,4,SV_6SxWlNLsoRj8nqK,304B,2022-06-16_14h49.37.328,implicit_time,2021.1.4,Linux x86_64,59.95563283
cursorjump,67.5,0,0,10,NA,0,NA,0,0,0.5,FALSE,practice,0,"[0,0,0,0,0.002083,0.002083,0.002083,0.002083,0.002083,0.002083,0.002083,0.002083,0.002083,0.002083,0.002083,0.002083,0.002083,0.004167,0.004167,0.004167,0.004167,0.004167,0.00625,0.0125,0.03125,0.047917,0.0875,0.135417,0.1875,0.2125,0.266667,0.291667,0.339583,0.385417,0.425,0.44375,0.477083,0.49375,0.53125,0.554167,0.554167,0.55,0.545833,0.54375,0.539583,0.5375,0.535417,0.535417,0.533333,0.533333,0.53125,0.533333,0.535417,0.5375,0.539583,0.5375,0.527083,0.502083,0.466667,0.44375,0.389583,0.3625,0.308333,0.266667,0.235417,0.222917,0.202083,0.191667,0.172917,0.158333,0.147917,0.14375,0.135417,0.13125,0.122917,0.116667,0.114583,0.110417,0.108333,0.10625,0.104167,0.097917,0.091667,0.08125,0.066667,0.060417,0.045833,0.035417,0.03125,0.025]","[0.016889,0.016889,0.016889,0.016889,0.016889,0.016889,0.016889,0.016889,0.016889,0.016889,0.016889,0.016889,0.016889,0.016889,0.016889,0.013778,0.013778,0.013778,0.010667,0.010667,0.010667,0.010667,0.02,0.029333,0.066667,0.094667,0.163111,0.237778,0.315556,0.356,0.44,0.483556,0.564444,0.639111,0.701333,0.729333,0.779111,0.804,0.844444,0.872444,0.878667,0.878667,0.881778,0.881778,0.881778,0.884889,0.884889,0.888,0.888,0.888,0.888,0.888,0.884889,0.881778,0.863111,0.847556,0.807111,0.748,0.673333,0.629778,0.536444,0.486667,0.396444,0.315556,0.250222,0.225333,0.178667,0.156889,0.116444,0.082222,0.057333,0.044889,0.023111,0.013778,-0.004889,-0.023556,-0.029778,-0.039111,-0.045333,-0.045333,-0.048444,-0.048444,-0.048444,-0.045333,-0.045333,-0.042222,-0.042222,-0.036,-0.032889,-0.029778]","[0.0007,0.0169,0.0343,0.0495,0.0676,0.0828,0.101,0.1162,0.1331,0.1498,0.1669,0.183,0.2003,0.217,0.2337,0.2505,0.2669,0.2837,0.3005,0.3172,0.3338,0.3504,0.3672,0.3839,0.4006,0.4174,0.4336,0.4506,0.4671,0.484,0.5007,0.5177,0.5341,0.5504,0.5674,0.5842,0.6009,0.6173,0.6341,0.6508,0.6675,0.6842,0.701,0.7175,0.7342,0.751,0.7678,0.7843,0.801,0.8177,0.8343,0.8507,0.8677,0.8845,0.9012,0.9179,0.9345,0.9511,0.9682,0.9843,1.0013,1.018,1.0346,1.0512,1.068,1.0845,1.1016,1.118,1.1347,1.1513,1.1682,1.1848,1.2039,1.2183,1.2349,1.2511,1.268,1.2845,1.3012,1.3182,1.3348,1.3514,1.368,1.3847,1.4012,1.4185,1.4352,1.4513,1.468,1.4846]","[1,1,1,1,1,1,1,1,1,1,1,1,1,1,1,1,1,1,1,1,1,1,1,1,1,1,1,1,1,1,1,1,1,1,1,1,1,1,2,2,2,2,2,2,2,2,2,2,2,2,2,2,2,2,2,2,2,2,2,2,2,2,2,2,2,2,2,2,2,2,2,2,2,2,2,2,2,2,2,2,2,2,2,2,2,2,2,2,2,2]",3,30.0738,4,7,0,7,0,1,good 2,4,SV_6SxWlNLsoRj8nqK,304B,2022-06-16_14h49.37.328,implicit_time,2021.1.4,Linux x86_64,59.95563283
cursorjump,105,0,0.5,10,NA,0,NA,0,1,0.5,FALSE,practice,1,"[0.004167,0.004167,0.004167,0.004167,0.004167,0.004167,0.004167,0.004167,0.004167,0.004167,0.004167,0.004167,0.004167,0.004167,0.004167,0.004167,0.004167,0.004167,0.004167,0.004167,0.004167,0.004167,0.004167,0.004167,0.004167,0.002083,-0.00625,-0.014583,-0.01875,-0.025,-0.025,-0.027083,-0.027083,-0.033333,-0.0375,-0.05,-0.058333,-0.077083,-0.0875,-0.09375,-0.095833,-0.1,-0.102083,-0.1125,-0.125,-0.133333,-0.1375,-0.141667,-0.141667,-0.14375,-0.147917,-0.15625,-0.1625,-0.179167,-0.1875,-0.202083,-0.2125,-0.210417,-0.20625,-0.189583,-0.177083,-0.154167,-0.1375,-0.129167,-0.127083,-0.125,-0.122917,-0.120833,-0.116667,-0.10625,-0.102083,-0.089583,-0.072917,-0.0625,-0.04375,-0.029167,-0.022917,-0.016667,-0.014583,-0.014583,-0.016667,-0.01875,-0.01875,-0.01875]","[-0.011111,-0.014222,-0.014222,-0.014222,-0.014222,-0.014222,-0.014222,-0.011111,-0.011111,-0.011111,-0.011111,-0.011111,-0.011111,-0.011111,-0.011111,-0.014222,-0.014222,-0.014222,-0.014222,-0.014222,-0.014222,-0.014222,-0.014222,-0.014222,-0.014222,-0.011111,0.004444,0.032444,0.054222,0.116444,0.153778,0.247111,0.356,0.468,0.524,0.629778,0.676444,0.766667,0.850667,0.925333,0.956444,1.006222,1.018667,1.028,1.024889,1.021778,1.021778,1.021778,1.021778,1.018667,1.018667,1.018667,1.018667,1.012444,1.006222,0.984444,0.962667,0.937778,0.925333,0.888,0.863111,0.807111,0.741778,0.676444,0.645333,0.58,0.517778,0.486667,0.433778,0.384,0.359111,0.312444,0.272,0.253333,0.216,0.181778,0.166222,0.138222,0.110222,0.097778,0.069778,0.048,0.038667,0.02]","[0.0005,0.0167,0.0319,0.0496,0.0659,0.0827,0.0993,0.1165,0.1329,0.1492,0.1665,0.1825,0.2,0.2159,0.232,0.2498,0.2661,0.2826,0.2991,0.3162,0.3334,0.3493,0.3659,0.383,0.3995,0.4162,0.4328,0.4495,0.4665,0.483,0.4997,0.5163,0.533,0.5497,0.5665,0.583,0.5997,0.6164,0.633,0.6498,0.6665,0.6832,0.6999,0.7166,0.7332,0.7498,0.7667,0.7833,0.8,0.8167,0.8333,0.85,0.8667,0.8833,0.9001,0.9169,0.9335,0.9503,0.9669,0.9833,1,1.017,1.0338,1.0504,1.0671,1.0836,1.1003,1.117,1.1337,1.1505,1.167,1.1837,1.2007,1.2172,1.234,1.2507,1.2672,1.2838,1.3007,1.3173,1.334,1.3507,1.367,1.3837]","[1,1,1,1,1,1,1,1,1,1,1,1,1,1,1,1,1,1,1,1,1,1,1,1,1,1,1,1,1,1,1,1,1,1,1,1,1,1,1,1,2,2,2,2,2,2,2,2,2,2,2,2,2,2,2,2,2,2,2,2,2,2,2,2,2,2,2,2,2,2,2,2,2,2,2,2,2,2,2,2,2,2,2,2]",4,31.9752,4,8,0,8,0,1,good 2,4,SV_6SxWlNLsoRj8nqK,304B,2022-06-16_14h49.37.328,implicit_time,2021.1.4,Linux x86_64,59.95563283
cursorjump,112.5,0,0,10,NA,0,NA,0,0,0.5,FALSE,practice,0,"[0.008333,0.008333,0.008333,0.008333,0.008333,0.008333,0.008333,0.008333,0.008333,0.008333,0.008333,0.008333,0.008333,0.008333,0.008333,0.008333,0.008333,0.008333,0.00625,0.002083,-0.004167,-0.008333,-0.014583,-0.020833,-0.0375,-0.064583,-0.1,-0.120833,-0.158333,-0.175,-0.20625,-0.23125,-0.25,-0.258333,-0.272917,-0.279167,-0.295833,-0.310417,-0.316667,-0.327083,-0.333333,-0.333333,-0.335417,-0.333333,-0.333333,-0.333333,-0.333333,-0.333333,-0.329167,-0.314583,-0.30625,-0.285417,-0.2625,-0.254167,-0.233333,-0.2125,-0.2,-0.177083,-0.152083,-0.141667,-0.116667,-0.091667,-0.08125,-0.0625,-0.045833,-0.039583,-0.025,-0.010417,-0.002083]","[-0.011111,-0.011111,-0.011111,-0.011111,-0.011111,-0.011111,-0.011111,-0.011111,-0.011111,-0.011111,-0.011111,-0.011111,-0.011111,-0.011111,-0.011111,-0.011111,-0.011111,-0.011111,-0.008,0.001333,0.029333,0.048,0.100889,0.128889,0.197333,0.268889,0.352889,0.393333,0.480444,0.520889,0.601778,0.679556,0.751111,0.785333,0.847556,0.875556,0.919111,0.950222,0.965778,0.987556,0.993778,0.990667,0.990667,0.990667,0.990667,0.987556,0.987556,0.987556,0.987556,0.978222,0.968889,0.937778,0.891111,0.863111,0.797778,0.726222,0.685778,0.598667,0.514667,0.474222,0.393333,0.318667,0.281333,0.212889,0.153778,0.128889,0.088444,0.054222,0.038667]","[0.0006,0.0166,0.0331,0.0494,0.0667,0.0825,0.0995,0.1156,0.1334,0.1516,0.1667,0.1831,0.1993,0.2163,0.2331,0.2487,0.2661,0.2831,0.2998,0.3166,0.3326,0.3495,0.3662,0.383,0.3996,0.4164,0.4326,0.4497,0.4666,0.4828,0.4998,0.5164,0.533,0.5496,0.5665,0.583,0.5997,0.6165,0.6331,0.6498,0.6666,0.6834,0.6997,0.7166,0.7333,0.7499,0.7666,0.7831,0.7999,0.8168,0.8332,0.8501,0.8668,0.8834,0.9,0.9171,0.9334,0.9501,0.9668,0.9835,1.0001,1.017,1.0336,1.0504,1.0669,1.0837,1.1005,1.1171,1.1338]","[1,1,1,1,1,1,1,1,1,1,1,1,1,1,1,1,1,1,1,1,1,1,1,1,1,1,1,1,1,1,1,1,1,1,1,1,2,2,2,2,2,2,2,2,2,2,2,2,2,2,2,2,2,2,2,2,2,2,2,2,2,2,2,2,2,2,2,2,2]",4,33.7932,4,9,0,9,0,1,good 2,4,SV_6SxWlNLsoRj8nqK,304B,2022-06-16_14h49.37.328,implicit_time,2021.1.4,Linux x86_64,59.95563283
cursorjump,75,0,0.5,10,NA,0,NA,0,1,0.5,FALSE,practice,1,"[-0.004167,-0.004167,-0.004167,-0.004167,-0.004167,-0.004167,-0.004167,-0.004167,-0.004167,-0.004167,-0.004167,-0.004167,-0.00625,-0.00625,-0.00625,-0.008333,-0.008333,-0.008333,-0.008333,-0.008333,-0.008333,-0.008333,-0.008333,-0.008333,-0.008333,-0.004167,0.014583,0.05,0.091667,0.116667,0.175,0.208333,0.28125,0.354167,0.416667,0.44375,0.49375,0.5125,0.508333,0.491667,0.483333,0.477083,0.46875,0.464583,0.458333,0.44375,0.425,0.4125,0.389583,0.377083,0.347917,0.320833,0.295833,0.2875,0.275,0.272917,0.266667,0.252083,0.225,0.210417,0.183333,0.15625,0.141667,0.1125,0.085417,0.070833,0.0375,0.022917,-0.002083,-0.01875,-0.029167,-0.03125,-0.0375,-0.039583,-0.045833,-0.052083,-0.05625,-0.058333,-0.058333,-0.058333,-0.058333,-0.05625,-0.05625,-0.05625,-0.05625,-0.058333,-0.0625,-0.064583,-0.066667,-0.06875,-0.06875,-0.06875,-0.06875,-0.06875,-0.06875,-0.064583,-0.05625,-0.045833,-0.041667,-0.029167]","[-0.001778,-0.001778,-0.001778,-0.001778,-0.001778,-0.001778,-0.001778,-0.001778,-0.001778,-0.001778,-0.001778,-0.001778,0.001333,0.001333,0.004444,0.004444,0.004444,0.004444,0.004444,0.004444,0.004444,0.004444,0.004444,0.007556,0.02,0.035556,0.082222,0.150667,0.228444,0.268889,0.368444,0.421333,0.533333,0.636,0.729333,0.769778,0.847556,0.894222,0.903556,0.909778,0.912889,0.912889,0.919111,0.919111,0.922222,0.931556,0.937778,0.940889,0.953333,0.956444,0.968889,0.978222,0.984444,0.987556,0.990667,0.990667,0.981333,0.959556,0.922222,0.894222,0.832,0.757333,0.72,0.651556,0.58,0.545778,0.477333,0.449333,0.393333,0.346667,0.3,0.278222,0.240889,0.225333,0.194222,0.169333,0.147556,0.141333,0.125778,0.122667,0.119556,0.116444,0.110222,0.097778,0.079111,0.066667,0.051111,0.038667,0.032444,0.010667,-0.004889,-0.008,-0.011111,-0.011111,-0.011111,-0.011111,-0.008,-0.004889,-0.004889,0.001333]","[0.0006,0.0162,0.033,0.0492,0.0663,0.0827,0.0992,0.1161,0.1324,0.1493,0.1664,0.1827,0.1998,0.2162,0.2327,0.2493,0.266,0.2825,0.2993,0.3156,0.3322,0.3498,0.3661,0.383,0.3996,0.4166,0.4332,0.4496,0.4662,0.4829,0.4996,0.5163,0.533,0.5498,0.5664,0.5832,0.6001,0.6217,0.6331,0.649,0.6659,0.689,0.7063,0.7164,0.7334,0.7503,0.7669,0.7833,0.7994,0.8168,0.8328,0.8496,0.8663,0.8837,0.9002,0.9167,0.9331,0.9497,0.9665,0.9832,0.9998,1.0171,1.033,1.05,1.0665,1.083,1.0998,1.1165,1.1333,1.15,1.1665,1.1833,1.1999,1.2168,1.2334,1.25,1.2667,1.2834,1.3001,1.3169,1.3334,1.3502,1.3669,1.3853,1.4003,1.4169,1.4335,1.4502,1.467,1.4836,1.5004,1.517,1.5336,1.5507,1.5668,1.5837,1.6005,1.6171,1.6338,1.6507]","[1,1,1,1,1,1,1,1,1,1,1,1,1,1,1,1,1,1,1,1,1,1,1,1,1,1,1,1,1,1,1,1,1,1,1,1,2,2,2,2,2,2,2,2,2,2,2,2,2,2,2,2,2,2,2,2,2,2,2,2,2,2,2,2,2,2,2,2,2,2,2,2,2,2,2,2,2,2,2,2,2,2,2,2,2,2,2,2,2,2,2,2,2,2,2,2,2,2,2,2]",4,35.9616,4,10,0,10,0,1,good 2,4,SV_6SxWlNLsoRj8nqK,304B,2022-06-16_14h49.37.328,implicit_time,2021.1.4,Linux x86_64,59.95563283
cursorjump,82.5,0,0,10,NA,0,NA,0,0,0.5,FALSE,practice,0,"[-0.022917,-0.025,-0.025,-0.027083,-0.027083,-0.027083,-0.029167,-0.029167,-0.029167,-0.029167,-0.029167,-0.029167,-0.029167,-0.029167,-0.029167,-0.027083,-0.027083,-0.022917,-0.020833,-0.0125,-0.004167,0,0.002083,0,-0.010417,-0.016667,-0.016667,-0.0125,0.014583,0.058333,0.083333,0.13125,0.16875,0.185417,0.210417,0.227083,0.23125,0.233333,0.229167,0.225,0.216667,0.208333,0.202083,0.189583,0.177083,0.16875,0.15625,0.15,0.15,0.152083,0.1625,0.166667,0.170833,0.164583,0.158333,0.139583,0.110417,0.09375,0.0625,0.039583,0.033333,0.020833,0.014583,0.014583,0.014583,0.016667,0.016667,0.01875,0.020833,0.020833,0.020833,0.020833,0.020833,0.020833,0.020833]","[-0.004889,-0.008,-0.008,-0.011111,-0.011111,-0.014222,-0.014222,-0.014222,-0.014222,-0.014222,-0.014222,-0.014222,-0.014222,-0.014222,-0.014222,-0.014222,-0.014222,-0.014222,-0.011111,-0.004889,0.004444,0.010667,0.029333,0.051111,0.097778,0.169333,0.216,0.272,0.393333,0.524,0.586222,0.704444,0.797778,0.835111,0.897333,0.937778,0.950222,0.968889,0.981333,0.987556,1,1.006222,1.006222,1.009333,1.012444,1.012444,1.015556,1.015556,1.015556,1.012444,1.003111,0.993778,0.962667,0.919111,0.888,0.816444,0.732444,0.685778,0.592444,0.511556,0.471111,0.402667,0.337333,0.309333,0.259556,0.216,0.197333,0.16,0.128889,0.113333,0.085333,0.060444,0.051111,0.038667,0.032444]","[0.0007,0.0179,0.033,0.0498,0.0666,0.083,0.0996,0.1166,0.133,0.1492,0.1665,0.1829,0.1994,0.2167,0.2335,0.2503,0.2668,0.2836,0.2998,0.3165,0.3335,0.3504,0.3672,0.3858,0.4017,0.4258,0.4401,0.4507,0.4673,0.4839,0.5008,0.517,0.534,0.5507,0.5672,0.5839,0.6005,0.6173,0.6341,0.6504,0.6674,0.6841,0.7008,0.7172,0.7338,0.7507,0.7674,0.784,0.8007,0.8171,0.834,0.8503,0.8682,0.8836,0.9003,0.9177,0.9337,0.9504,0.9672,0.9839,1.0013,1.0172,1.0338,1.0504,1.067,1.0845,1.1003,1.1174,1.1336,1.1505,1.1669,1.1837,1.2004,1.2171,1.2337]","[1,1,1,1,1,1,1,1,1,1,1,1,1,1,1,1,1,1,1,1,1,1,1,1,1,1,1,1,1,1,1,1,1,1,1,2,2,2,2,2,2,2,2,2,2,2,2,2,2,2,2,2,2,2,2,2,2,2,2,2,2,2,2,2,2,2,2,2,2,2,2,2,2,2,2]",4,37.7127,4,11,0,11,0,1,good 2,4,SV_6SxWlNLsoRj8nqK,304B,2022-06-16_14h49.37.328,implicit_time,2021.1.4,Linux x86_64,59.95563283
cursorjump,45,0,0.5,10,NA,0,NA,0,1,0.5,FALSE,practice,1,"[-0.004167,-0.002083,-0.002083,-0.002083,-0.002083,-0.002083,-0.002083,-0.002083,0,0,0,0,0,0,0,0,0,0,0,0.002083,0.002083,0.008333,0.039583,0.104167,0.15,0.25625,0.3125,0.420833,0.525,0.63125,0.685417,0.772917,0.80625,0.80625,0.804167,0.804167,0.804167,0.80625,0.808333,0.810417,0.810417,0.810417,0.810417,0.810417,0.810417,0.810417,0.810417,0.810417,0.810417,0.8,0.777083,0.758333,0.708333,0.679167,0.616667,0.55,0.48125,0.445833,0.383333,0.354167,0.3,0.247917,0.197917,0.177083,0.14375,0.129167,0.10625,0.0875,0.070833,0.060417,0.039583,0.027083,0.008333,-0.008333,-0.01875,-0.022917,-0.03125,-0.035417,-0.045833,-0.05,-0.05,-0.05,-0.045833,-0.04375,-0.039583]","[-0.020444,-0.023556,-0.023556,-0.023556,-0.026667,-0.026667,-0.026667,-0.026667,-0.029778,-0.029778,-0.029778,-0.029778,-0.029778,-0.032889,-0.032889,-0.036,-0.036,-0.036,-0.036,-0.036,-0.036,-0.023556,0.016889,0.091556,0.138222,0.244,0.293778,0.390222,0.474222,0.558222,0.598667,0.660889,0.685778,0.682667,0.682667,0.682667,0.682667,0.679556,0.679556,0.679556,0.679556,0.679556,0.682667,0.682667,0.682667,0.682667,0.682667,0.682667,0.679556,0.673333,0.660889,0.648444,0.617333,0.595556,0.545778,0.486667,0.424444,0.396444,0.340444,0.315556,0.268889,0.222222,0.178667,0.163111,0.144444,0.138222,0.132,0.125778,0.119556,0.116444,0.113333,0.110222,0.097778,0.079111,0.060444,0.051111,0.032444,0.026222,0.010667,0.001333,-0.001778,-0.004889,-0.008,-0.008,-0.011111]","[0.0007,0.0168,0.0326,0.0499,0.0666,0.083,0.0998,0.1164,0.1332,0.1498,0.1666,0.1831,0.1994,0.2166,0.2332,0.25,0.2667,0.2832,0.2999,0.3168,0.3333,0.3501,0.3667,0.3834,0.3999,0.4168,0.4336,0.4501,0.4671,0.4834,0.5001,0.5169,0.5364,0.5504,0.5671,0.5836,0.6001,0.6171,0.6339,0.6505,0.6672,0.6835,0.7004,0.7171,0.7337,0.7499,0.7671,0.7837,0.8043,0.8186,0.8341,0.8507,0.8678,0.8841,0.9006,0.9175,0.9342,0.9506,0.9675,0.984,1.0006,1.0177,1.0345,1.0508,1.0676,1.0841,1.1008,1.1176,1.1344,1.1508,1.1677,1.1843,1.2009,1.2178,1.2342,1.2509,1.2678,1.2843,1.3011,1.318,1.3343,1.3516,1.368,1.3844,1.4016]","[1,1,1,1,1,1,1,1,1,1,1,1,1,1,1,1,1,1,1,1,1,1,1,1,1,1,1,1,1,1,1,2,2,2,2,2,2,2,2,2,2,2,2,2,2,2,2,2,2,2,2,2,2,2,2,2,2,2,2,2,2,2,2,2,2,2,2,2,2,2,2,2,2,2,2,2,2,2,2,2,2,2,2,2,2]",5,39.6315,4,12,0,12,0,1,good 2,4,SV_6SxWlNLsoRj8nqK,304B,2022-06-16_14h49.37.328,implicit_time,2021.1.4,Linux x86_64,59.95563283
cursorjump,37.5,0,0,10,NA,0,NA,0,0,0.5,FALSE,practice,0,"[-0.002083,-0.002083,-0.002083,-0.002083,-0.002083,-0.002083,-0.002083,-0.002083,-0.002083,-0.002083,-0.002083,-0.002083,-0.002083,-0.002083,-0.002083,-0.002083,-0.002083,-0.002083,-0.002083,0,0.002083,0.008333,0.014583,0.020833,0.025,0.039583,0.047917,0.06875,0.089583,0.116667,0.1375,0.189583,0.220833,0.2875,0.354167,0.420833,0.45625,0.53125,0.56875,0.6375,0.695833,0.722917,0.764583,0.785417,0.7875,0.789583,0.789583,0.791667,0.791667,0.791667,0.79375,0.79375,0.79375,0.79375,0.789583,0.779167,0.770833,0.745833,0.70625,0.683333,0.625,0.55625,0.477083,0.4375,0.364583,0.33125,0.272917,0.225,0.204167,0.166667,0.139583,0.129167,0.1125,0.102083,0.097917,0.09375,0.089583,0.089583,0.0875,0.0875,0.0875,0.0875,0.085417,0.085417,0.079167,0.06875,0.060417,0.045833,0.033333,0.027083,0.020833]","[-0.014222,-0.014222,-0.014222,-0.014222,-0.014222,-0.014222,-0.014222,-0.014222,-0.014222,-0.014222,-0.014222,-0.011111,-0.008,-0.008,-0.008,-0.004889,-0.004889,-0.004889,-0.004889,-0.004889,-0.004889,-0.001778,-0.001778,0.010667,0.026222,0.069778,0.097778,0.16,0.222222,0.281333,0.318667,0.396444,0.433778,0.499111,0.542667,0.576889,0.589333,0.620444,0.636,0.660889,0.679556,0.688889,0.701333,0.707556,0.707556,0.701333,0.701333,0.701333,0.701333,0.701333,0.701333,0.701333,0.698222,0.698222,0.695111,0.685778,0.676444,0.648444,0.608,0.583111,0.530222,0.468,0.396444,0.359111,0.284444,0.247111,0.181778,0.128889,0.107111,0.072889,0.048,0.035556,0.02,0.007556,0.004444,-0.004889,-0.011111,-0.014222,-0.017333,-0.017333,-0.020444,-0.023556,-0.026667,-0.029778,-0.029778,-0.032889,-0.032889,-0.032889,-0.032889,-0.032889,-0.029778]","[0.0007,0.0177,0.0333,0.0495,0.0659,0.0837,0.0999,0.1162,0.1338,0.1502,0.167,0.1837,0.2005,0.2168,0.2337,0.2505,0.2669,0.2839,0.3005,0.317,0.334,0.351,0.3678,0.3843,0.4006,0.4173,0.4346,0.4511,0.4677,0.4848,0.5014,0.5178,0.5348,0.5513,0.5679,0.5866,0.6016,0.618,0.6348,0.6525,0.6703,0.6854,0.7016,0.7184,0.7351,0.7516,0.7684,0.7846,0.8016,0.8195,0.8347,0.8518,0.8679,0.8851,0.9011,0.9185,0.9352,0.9518,0.9684,0.9851,1.0018,1.0187,1.0357,1.0521,1.0696,1.0853,1.102,1.1186,1.1352,1.1516,1.1682,1.1849,1.2014,1.2183,1.2351,1.2515,1.268,1.2849,1.3015,1.3181,1.3351,1.3517,1.3701,1.3858,1.4017,1.4184,1.4355,1.4519,1.4685,1.4853,1.502]","[1,1,1,1,1,1,1,1,1,1,1,1,1,1,1,1,1,1,1,1,1,1,1,1,1,1,1,1,1,1,1,1,1,1,1,1,1,1,1,1,2,2,2,2,2,2,2,2,2,2,2,2,2,2,2,2,2,2,2,2,2,2,2,2,2,2,2,2,2,2,2,2,2,2,2,2,2,2,2,2,2,2,2,2,2,2,2,2,2,2,2]",5,42.2344,4,13,0,13,0,1,good 2,4,SV_6SxWlNLsoRj8nqK,304B,2022-06-16_14h49.37.328,implicit_time,2021.1.4,Linux x86_64,59.95563283
cursorjump,135,0,0.5,10,NA,0,NA,0,1,0.5,FALSE,practice,1,"[0,0,0,0,0,0.002083,0.002083,0.002083,0.002083,0.002083,0.002083,0.002083,0.002083,0.002083,0.004167,0.004167,0.00625,0.00625,0.00625,0.00625,0.00625,0,-0.004167,-0.016667,-0.0375,-0.05,-0.0875,-0.139583,-0.172917,-0.247917,-0.2875,-0.3625,-0.427083,-0.48125,-0.50625,-0.554167,-0.602083,-0.627083,-0.672917,-0.7125,-0.729167,-0.752083,-0.7625,-0.7625,-0.7625,-0.7625,-0.760417,-0.752083,-0.735417,-0.725,-0.695833,-0.664583,-0.647917,-0.610417,-0.5625,-0.5375,-0.48125,-0.425,-0.397917,-0.3375,-0.275,-0.24375,-0.1875,-0.1625,-0.120833,-0.0875,-0.0625,-0.052083,-0.033333,-0.027083]","[0.016889,0.016889,0.013778,0.013778,0.013778,0.013778,0.013778,0.013778,0.013778,0.013778,0.013778,0.013778,0.013778,0.013778,0.010667,0.007556,0.007556,0.004444,0.004444,0.004444,0.004444,0.007556,0.010667,0.023111,0.041778,0.054222,0.085333,0.122667,0.144444,0.191111,0.219111,0.284444,0.359111,0.433778,0.468,0.539556,0.608,0.636,0.685778,0.726222,0.741778,0.769778,0.782222,0.785333,0.785333,0.785333,0.785333,0.785333,0.779111,0.769778,0.741778,0.704444,0.682667,0.639111,0.589333,0.564444,0.502222,0.436889,0.405778,0.343556,0.290667,0.262667,0.212889,0.188,0.144444,0.104,0.069778,0.057333,0.035556,0.023111]","[0.0005,0.0166,0.0327,0.0494,0.0663,0.0827,0.0996,0.1162,0.1326,0.1493,0.1662,0.1828,0.1976,0.2163,0.233,0.2496,0.2666,0.2831,0.2999,0.3164,0.333,0.3499,0.3666,0.3833,0.4,0.4167,0.4333,0.4498,0.4667,0.4832,0.4999,0.5172,0.5333,0.5501,0.5668,0.5835,0.6003,0.6169,0.6336,0.6531,0.6672,0.6839,0.7005,0.717,0.7336,0.7502,0.7672,0.7838,0.8007,0.8171,0.8336,0.8504,0.8673,0.886,0.9004,0.9173,0.9338,0.9505,0.9673,0.9839,1.0007,1.0175,1.034,1.0504,1.0676,1.0841,1.1007,1.1175,1.134,1.1507]","[1,1,1,1,1,1,1,1,1,1,1,1,1,1,1,1,1,1,1,1,1,1,1,1,1,1,1,1,1,1,1,1,1,1,1,1,1,1,2,2,2,2,2,2,2,2,2,2,2,2,2,2,2,2,2,2,2,2,2,2,2,2,2,2,2,2,2,2,2,2]",6,43.9029,4,14,0,14,0,1,good 2,4,SV_6SxWlNLsoRj8nqK,304B,2022-06-16_14h49.37.328,implicit_time,2021.1.4,Linux x86_64,59.95563283
cursorjump,127.5,0,0,10,NA,0,NA,0,0,0.5,FALSE,practice,0,"[0.014583,0.014583,0.014583,0.014583,0.014583,0.014583,0.014583,0.0125,0.0125,0.010417,0.008333,0.008333,0.008333,0.008333,0.008333,0.008333,0.00625,0.00625,0.00625,0.00625,0.00625,0.00625,0.004167,0,-0.008333,-0.01875,-0.035417,-0.0625,-0.08125,-0.127083,-0.152083,-0.202083,-0.225,-0.264583,-0.29375,-0.314583,-0.325,-0.341667,-0.35,-0.364583,-0.377083,-0.3875,-0.391667,-0.4,-0.402083,-0.40625,-0.40625,-0.408333,-0.408333,-0.40625,-0.40625,-0.40625,-0.40625,-0.4,-0.395833,-0.38125,-0.372917,-0.35625,-0.341667,-0.327083,-0.320833,-0.304167,-0.29375,-0.26875,-0.2375,-0.204167,-0.1875,-0.158333,-0.145833,-0.122917,-0.102083,-0.083333,-0.077083,-0.064583,-0.058333,-0.047917,-0.039583,-0.035417,-0.033333,-0.03125,-0.03125,-0.03125,-0.03125,-0.03125,-0.029167,-0.027083,-0.027083,-0.025]","[-0.004889,-0.001778,-0.001778,-0.001778,-0.001778,-0.001778,-0.001778,0.001333,0.004444,0.007556,0.010667,0.010667,0.013778,0.013778,0.013778,0.013778,0.013778,0.013778,0.013778,0.013778,0.013778,0.013778,0.02,0.023111,0.044889,0.082222,0.135111,0.197333,0.228444,0.296889,0.331111,0.399556,0.436889,0.505333,0.573778,0.636,0.667111,0.723111,0.748,0.794667,0.835111,0.869333,0.884889,0.912889,0.928444,0.953333,0.968889,0.972,0.972,0.972,0.972,0.972,0.972,0.965778,0.959556,0.940889,0.922222,0.878667,0.822667,0.757333,0.72,0.642222,0.601778,0.520889,0.44,0.362222,0.324889,0.256444,0.225333,0.169333,0.122667,0.079111,0.063556,0.035556,0.023111,0.001333,-0.014222,-0.023556,-0.026667,-0.029778,-0.029778,-0.029778,-0.029778,-0.029778,-0.029778,-0.032889,-0.032889,-0.032889]","[0.0007,0.0171,0.0327,0.049,0.0661,0.083,0.0995,0.116,0.1329,0.1498,0.1663,0.1831,0.1998,0.2161,0.2328,0.2492,0.2665,0.2831,0.2996,0.3161,0.3329,0.3497,0.3664,0.3833,0.4003,0.4244,0.4348,0.4526,0.4697,0.4858,0.5013,0.5175,0.5342,0.5508,0.5674,0.584,0.601,0.6174,0.634,0.651,0.6674,0.6841,0.701,0.7197,0.7343,0.751,0.7676,0.7843,0.801,0.8173,0.8341,0.8507,0.8672,0.8841,0.9013,0.9178,0.9344,0.9514,0.968,0.9844,1.0014,1.0179,1.0345,1.0515,1.0682,1.0846,1.1013,1.1179,1.1341,1.151,1.1675,1.1841,1.2009,1.2176,1.2342,1.2511,1.2675,1.2842,1.301,1.3175,1.3343,1.3509,1.3675,1.3841,1.4011,1.4179,1.4343,1.4513]","[1,1,1,1,1,1,1,1,1,1,1,1,1,1,1,1,1,1,1,1,1,1,1,1,1,1,1,1,1,1,1,1,1,1,1,1,1,1,1,1,1,1,2,2,2,2,2,2,2,2,2,2,2,2,2,2,2,2,2,2,2,2,2,2,2,2,2,2,2,2,2,2,2,2,2,2,2,2,2,2,2,2,2,2,2,2,2,2]",6,45.8722,4,15,0,15,0,1,good 2,4,SV_6SxWlNLsoRj8nqK,304B,2022-06-16_14h49.37.328,implicit_time,2021.1.4,Linux x86_64,59.95563283
cursorjump,75,0,0.5,10,NA,0,NA,0,1,0.5,FALSE,practice,1,"[0.002083,0.002083,0,0,0,-0.002083,-0.002083,-0.002083,-0.004167,-0.004167,-0.004167,-0.004167,-0.004167,-0.004167,-0.00625,-0.00625,-0.008333,-0.008333,-0.008333,-0.010417,-0.010417,-0.014583,-0.01875,-0.022917,-0.029167,-0.029167,-0.022917,0,0.039583,0.0625,0.116667,0.145833,0.20625,0.270833,0.33125,0.354167,0.366667,0.358333,0.3375,0.329167,0.325,0.322917,0.316667,0.314583,0.310417,0.310417,0.310417,0.3125,0.3125,0.310417,0.308333,0.30625,0.3,0.291667,0.277083,0.266667,0.239583,0.204167,0.1875,0.152083,0.125,0.1125,0.091667,0.072917,0.0625,0.04375,0.027083,0.016667,-0.002083,-0.020833,-0.029167]","[0.02,0.02,0.02,0.023111,0.023111,0.026222,0.026222,0.026222,0.026222,0.026222,0.026222,0.026222,0.023111,0.02,0.016889,0.010667,0.010667,0.007556,0.004444,0.004444,0.004444,0.004444,0.004444,0.007556,0.02,0.029333,0.066667,0.128889,0.222222,0.281333,0.405778,0.471111,0.608,0.738667,0.856889,0.903556,0.959556,0.965778,0.972,0.972,0.975111,0.975111,0.978222,0.978222,0.981333,0.981333,0.978222,0.975111,0.968889,0.959556,0.937778,0.922222,0.881778,0.832,0.772889,0.741778,0.673333,0.595556,0.558222,0.477333,0.402667,0.365333,0.3,0.234667,0.203556,0.153778,0.113333,0.097778,0.066667,0.038667,0.023111]","[0.0005,0.0165,0.0331,0.0496,0.0663,0.083,0.0997,0.1158,0.1286,0.1497,0.1665,0.1832,0.1997,0.2165,0.2332,0.2499,0.2664,0.2835,0.3001,0.3164,0.3333,0.3498,0.3668,0.3836,0.4,0.4166,0.4336,0.4503,0.4668,0.4836,0.5003,0.5171,0.5342,0.5501,0.5667,0.5837,0.6032,0.6173,0.6338,0.6503,0.6669,0.684,0.7007,0.7169,0.7341,0.7504,0.7671,0.7839,0.8005,0.8171,0.8341,0.8505,0.8672,0.8841,0.9005,0.9172,0.9342,0.9508,0.9672,0.9846,1.0008,1.0174,1.0343,1.0507,1.0674,1.0842,1.1008,1.1174,1.1344,1.1509,1.1677]","[1,1,1,1,1,1,1,1,1,1,1,1,1,1,1,1,1,1,1,1,1,1,1,1,1,1,1,1,1,1,1,1,1,1,1,2,2,2,2,2,2,2,2,2,2,2,2,2,2,2,2,2,2,2,2,2,2,2,2,2,2,2,2,2,2,2,2,2,2,2,2]",7,47.5572,4,16,0,16,0,1,good 2,4,SV_6SxWlNLsoRj8nqK,304B,2022-06-16_14h49.37.328,implicit_time,2021.1.4,Linux x86_64,59.95563283
cursorjump,82.5,0,0,10,NA,0,NA,0,0,0.5,FALSE,practice,0,"[0.00625,0.00625,0.00625,0.00625,0.00625,0.00625,0.00625,0.004167,0.004167,0.002083,0.002083,0,-0.002083,-0.002083,-0.002083,-0.004167,-0.004167,-0.004167,-0.004167,-0.004167,-0.004167,-0.00625,-0.008333,-0.004167,0,0.022917,0.058333,0.077083,0.1125,0.145833,0.164583,0.197917,0.21875,0.227083,0.2375,0.252083,0.258333,0.254167,0.233333,0.222917,0.20625,0.195833,0.191667,0.18125,0.175,0.172917,0.170833,0.16875,0.16875,0.170833,0.175,0.18125,0.19375,0.204167,0.208333,0.210417,0.20625,0.202083,0.183333,0.160417,0.13125,0.116667,0.09375,0.083333,0.06875,0.052083,0.045833,0.033333,0.025,0.020833]","[-0.014222,-0.014222,-0.014222,-0.014222,-0.014222,-0.014222,-0.014222,-0.011111,-0.011111,-0.011111,-0.008,-0.004889,-0.001778,0.004444,0.004444,0.007556,0.007556,0.007556,0.007556,0.007556,0.010667,0.016889,0.032444,0.063556,0.091556,0.163111,0.259556,0.309333,0.421333,0.536444,0.592444,0.698222,0.782222,0.816444,0.881778,0.937778,0.981333,0.993778,1.003111,1.003111,1.006222,1.009333,1.009333,1.009333,1.012444,1.012444,1.012444,1.012444,1.012444,1.012444,1.009333,1.003111,0.978222,0.940889,0.916,0.86,0.794667,0.757333,0.676444,0.586222,0.486667,0.44,0.349778,0.309333,0.231556,0.16,0.125778,0.072889,0.038667,0.023111]","[0.0006,0.0157,0.0312,0.0477,0.0648,0.0812,0.0977,0.1146,0.1312,0.1477,0.1648,0.1813,0.198,0.2152,0.2315,0.2479,0.2647,0.2813,0.2976,0.3149,0.3316,0.348,0.365,0.3815,0.3986,0.4155,0.4323,0.4486,0.4656,0.4821,0.4986,0.5174,0.5328,0.549,0.5659,0.5825,0.6015,0.6158,0.6323,0.649,0.6658,0.6826,0.6993,0.7159,0.7325,0.7489,0.766,0.7825,0.7993,0.8158,0.8325,0.8492,0.8661,0.8827,0.8995,0.9162,0.9326,0.9493,0.9662,0.9828,1.0026,1.0166,1.0329,1.0495,1.066,1.0824,1.0993,1.116,1.1323,1.1491]","[1,1,1,1,1,1,1,1,1,1,1,1,1,1,1,1,1,1,1,1,1,1,1,1,1,1,1,1,1,1,1,1,1,1,1,2,2,2,2,2,2,2,2,2,2,2,2,2,2,2,2,2,2,2,2,2,2,2,2,2,2,2,2,2,2,2,2,2,2,2]",7,49.5095,4,17,0,17,0,1,good 2,4,SV_6SxWlNLsoRj8nqK,304B,2022-06-16_14h49.37.328,implicit_time,2021.1.4,Linux x86_64,59.95563283
cursorjump,105,0,0.5,10,NA,0,NA,0,1,0.5,FALSE,practice,1,"[0.0125,0.0125,0.0125,0.0125,0.0125,0.0125,0.0125,0.0125,0.0125,0.014583,0.014583,0.014583,0.014583,0.014583,0.014583,0.014583,0.014583,0.014583,0.014583,0.014583,0.014583,0.0125,0.010417,0.002083,-0.008333,-0.025,-0.035417,-0.060417,-0.077083,-0.110417,-0.14375,-0.170833,-0.183333,-0.208333,-0.220833,-0.241667,-0.247917,-0.25,-0.254167,-0.260417,-0.2625,-0.264583,-0.264583,-0.264583,-0.264583,-0.260417,-0.254167,-0.235417,-0.214583,-0.195833,-0.185417,-0.166667,-0.158333,-0.141667,-0.125,-0.1125,-0.10625,-0.097917,-0.091667,-0.079167,-0.0625,-0.04375,-0.0375,-0.027083,-0.022917,-0.016667,-0.0125,-0.010417,-0.010417,-0.0125,-0.0125,-0.010417]","[-0.004889,-0.004889,-0.004889,-0.004889,-0.004889,-0.004889,-0.004889,-0.004889,-0.004889,-0.004889,-0.004889,-0.004889,-0.004889,-0.004889,-0.004889,-0.004889,-0.004889,-0.004889,-0.004889,-0.004889,-0.004889,-0.004889,-0.001778,0.010667,0.041778,0.094667,0.128889,0.212889,0.259556,0.352889,0.452444,0.552,0.598667,0.685778,0.726222,0.807111,0.888,0.956444,0.981333,1.006222,1.009333,1.006222,1.006222,1.006222,1.003111,1.003111,1.003111,1.003111,0.990667,0.968889,0.953333,0.919111,0.897333,0.844444,0.779111,0.701333,0.660889,0.58,0.542667,0.468,0.399556,0.331111,0.3,0.244,0.216,0.166222,0.125778,0.091556,0.079111,0.054222,0.041778,0.016889]","[0.0001,0.0229,0.0392,0.0559,0.0724,0.0886,0.0996,0.1164,0.1331,0.1499,0.1667,0.1899,0.2059,0.2229,0.2391,0.256,0.2723,0.2888,0.2998,0.3167,0.3336,0.352,0.3741,0.3899,0.4065,0.4232,0.4396,0.4563,0.4732,0.4895,0.5063,0.5244,0.5399,0.5566,0.5732,0.5898,0.6067,0.6233,0.6428,0.6566,0.6743,0.69,0.7067,0.7234,0.7401,0.7568,0.7734,0.79,0.8067,0.8234,0.8399,0.8568,0.8737,0.89,0.907,0.9236,0.9404,0.9567,0.9736,0.9902,1.007,1.0239,1.0402,1.0571,1.0737,1.0901,1.1069,1.1239,1.1402,1.157,1.1739,1.1902]","[1,1,1,1,1,1,1,1,1,1,1,1,1,1,1,1,1,1,1,1,1,1,1,1,1,1,1,1,1,1,1,1,1,1,1,1,1,2,2,2,2,2,2,2,2,2,2,2,2,2,2,2,2,2,2,2,2,2,2,2,2,2,2,2,2,2,2,2,2,2,2,2]",8,51.5118,4,18,0,18,0,1,good 2,4,SV_6SxWlNLsoRj8nqK,304B,2022-06-16_14h49.37.328,implicit_time,2021.1.4,Linux x86_64,59.95563283
cursorjump,112.5,0,0,10,NA,0,NA,0,0,0.5,FALSE,practice,0,"[0.004167,0.004167,0.004167,0.004167,0.004167,0.004167,0.004167,0.004167,0.004167,0.004167,0.004167,0.004167,0.004167,0.004167,0.004167,0.004167,0.004167,0.004167,0.002083,0,-0.00625,-0.010417,-0.020833,-0.035417,-0.054167,-0.06875,-0.10625,-0.127083,-0.175,-0.225,-0.279167,-0.30625,-0.345833,-0.3625,-0.385417,-0.404167,-0.41875,-0.420833,-0.425,-0.422917,-0.422917,-0.420833,-0.414583,-0.40625,-0.379167,-0.364583,-0.335417,-0.308333,-0.285417,-0.272917,-0.245833,-0.227083,-0.191667,-0.154167,-0.135417,-0.102083,-0.072917,-0.058333,-0.033333,-0.014583,-0.004167,0.010417,0.022917]","[0.010667,0.010667,0.010667,0.010667,0.010667,0.010667,0.010667,0.010667,0.010667,0.010667,0.010667,0.010667,0.010667,0.010667,0.010667,0.010667,0.010667,0.010667,0.013778,0.02,0.041778,0.057333,0.104,0.163111,0.231556,0.268889,0.346667,0.387111,0.468,0.548889,0.626667,0.667111,0.744889,0.788444,0.869333,0.940889,0.968889,0.965778,0.959556,0.959556,0.956444,0.956444,0.959556,0.959556,0.953333,0.940889,0.906667,0.847556,0.776,0.738667,0.660889,0.620444,0.536444,0.452444,0.412,0.331111,0.256444,0.219111,0.153778,0.100889,0.079111,0.041778,0.016889]","[0.0003,0.0163,0.0328,0.0496,0.0663,0.083,0.0997,0.1164,0.1331,0.1496,0.1665,0.183,0.1997,0.2165,0.2333,0.2497,0.2666,0.2833,0.3,0.3167,0.3335,0.35,0.3667,0.3836,0.4003,0.4169,0.4338,0.4501,0.467,0.4837,0.5004,0.5171,0.5336,0.5502,0.5671,0.5837,0.6002,0.6169,0.6338,0.6506,0.6671,0.6838,0.7005,0.717,0.7337,0.7507,0.7673,0.7839,0.8004,0.8172,0.834,0.8508,0.8674,0.884,0.9006,0.9173,0.9341,0.9508,0.9674,0.9842,1.0007,1.0174,1.0342]","[1,1,1,1,1,1,1,1,1,1,1,1,1,1,1,1,1,1,1,1,1,1,1,1,1,1,1,1,1,1,1,1,1,1,1,2,2,2,2,2,2,2,2,2,2,2,2,2,2,2,2,2,2,2,2,2,2,2,2,2,2,2,2]",8,53.2901,4,19,0,19,0,1,good 2,4,SV_6SxWlNLsoRj8nqK,304B,2022-06-16_14h49.37.328,implicit_time,2021.1.4,Linux x86_64,59.95563283
cursorjump,135,0,0.5,10,NA,0,NA,0,1,0.5,FALSE,practice,1,"[-0.004167,-0.004167,-0.004167,-0.004167,-0.004167,-0.00625,-0.010417,-0.0125,-0.014583,-0.014583,-0.014583,-0.014583,-0.014583,-0.014583,-0.014583,-0.014583,-0.014583,-0.0125,-0.0125,-0.010417,-0.010417,-0.010417,-0.008333,-0.010417,-0.014583,-0.029167,-0.05,-0.064583,-0.1,-0.120833,-0.170833,-0.233333,-0.302083,-0.3375,-0.402083,-0.43125,-0.4875,-0.5375,-0.585417,-0.604167,-0.641667,-0.65625,-0.685417,-0.704167,-0.7125,-0.714583,-0.714583,-0.7125,-0.704167,-0.691667,-0.672917,-0.660417,-0.6375,-0.625,-0.604167,-0.583333,-0.558333,-0.54375,-0.50625,-0.483333,-0.433333,-0.379167,-0.329167,-0.304167,-0.260417,-0.2375,-0.197917,-0.160417,-0.129167,-0.114583,-0.089583,-0.08125,-0.0625,-0.047917,-0.03125,-0.022917]","[-0.011111,-0.011111,-0.011111,-0.011111,-0.011111,-0.011111,-0.011111,-0.008,-0.008,-0.008,-0.008,-0.008,-0.008,-0.008,-0.008,-0.008,-0.008,-0.011111,-0.011111,-0.014222,-0.017333,-0.017333,-0.017333,-0.017333,-0.014222,-0.004889,0.013778,0.029333,0.066667,0.091556,0.147556,0.209778,0.278222,0.312444,0.384,0.421333,0.489778,0.552,0.608,0.636,0.679556,0.698222,0.726222,0.741778,0.751111,0.754222,0.754222,0.751111,0.741778,0.726222,0.704444,0.688889,0.654667,0.636,0.595556,0.558222,0.517778,0.496,0.452444,0.430667,0.387111,0.340444,0.293778,0.268889,0.225333,0.203556,0.166222,0.135111,0.107111,0.094667,0.072889,0.063556,0.048,0.038667,0.032444,0.029333]","[0.0003,0.0165,0.0328,0.0497,0.0664,0.0831,0.0998,0.1165,0.1332,0.1498,0.1666,0.1832,0.1988,0.2166,0.2323,0.2498,0.2657,0.2825,0.299,0.3157,0.3332,0.35,0.3658,0.3824,0.3992,0.4167,0.4333,0.4493,0.4667,0.4834,0.4993,0.5159,0.5327,0.5496,0.5669,0.5828,0.5994,0.617,0.6327,0.6495,0.6661,0.6828,0.6996,0.7161,0.733,0.7496,0.7662,0.7829,0.7995,0.8162,0.8332,0.8497,0.8664,0.883,0.8998,0.9163,0.9329,0.9498,0.9665,0.983,0.9998,1.0164,1.0331,1.0499,1.0667,1.0833,1.0998,1.1166,1.1336,1.15,1.1667,1.1834,1.2001,1.2169,1.2336,1.2502]","[1,1,1,1,1,1,1,1,1,1,1,1,1,1,1,1,1,1,1,1,1,1,1,1,1,1,1,1,1,1,1,1,1,1,1,1,1,1,1,1,1,1,2,2,2,2,2,2,2,2,2,2,2,2,2,2,2,2,2,2,2,2,2,2,2,2,2,2,2,2,2,2,2,2,2,2]",9,55.0581,4,20,0,20,0,1,good 2,4,SV_6SxWlNLsoRj8nqK,304B,2022-06-16_14h49.37.328,implicit_time,2021.1.4,Linux x86_64,59.95563283
cursorjump,127.5,0,0,10,NA,0,NA,0,0,0.5,FALSE,practice,0,"[-0.016667,-0.016667,-0.016667,-0.016667,-0.016667,-0.016667,-0.014583,-0.014583,-0.014583,-0.0125,-0.0125,-0.0125,-0.0125,-0.0125,-0.0125,-0.010417,-0.010417,-0.010417,-0.010417,-0.010417,-0.010417,-0.010417,-0.010417,-0.010417,-0.0125,-0.020833,-0.027083,-0.045833,-0.058333,-0.089583,-0.129167,-0.15625,-0.220833,-0.302083,-0.345833,-0.433333,-0.5125,-0.545833,-0.6,-0.641667,-0.658333,-0.685417,-0.691667,-0.69375,-0.69375,-0.691667,-0.691667,-0.6875,-0.675,-0.6625,-0.63125,-0.614583,-0.579167,-0.541667,-0.50625,-0.485417,-0.44375,-0.41875,-0.36875,-0.316667,-0.2625,-0.2375,-0.189583,-0.166667,-0.129167,-0.097917,-0.066667,-0.054167,-0.035417]","[0.007556,0.007556,0.007556,0.004444,0.004444,0.004444,0.001333,-0.001778,-0.001778,-0.004889,-0.004889,-0.004889,-0.004889,-0.004889,-0.004889,-0.004889,-0.004889,-0.004889,-0.004889,-0.004889,-0.004889,-0.004889,-0.004889,-0.004889,-0.004889,-0.001778,0.004444,0.026222,0.041778,0.094667,0.166222,0.206667,0.290667,0.374667,0.415111,0.496,0.576889,0.614222,0.682667,0.741778,0.769778,0.810222,0.822667,0.825778,0.825778,0.822667,0.822667,0.822667,0.816444,0.807111,0.782222,0.766667,0.723111,0.667111,0.601778,0.564444,0.489778,0.452444,0.377778,0.306222,0.244,0.212889,0.156889,0.132,0.085333,0.051111,0.02,0.007556,-0.008]","[0.0001,0.0166,0.0333,0.0491,0.0666,0.0833,0.1,0.1165,0.1332,0.1501,0.1666,0.1834,0.1998,0.2165,0.2335,0.25,0.2667,0.2825,0.3,0.3166,0.3334,0.3501,0.3668,0.3825,0.4001,0.4168,0.4326,0.4503,0.4661,0.4827,0.5003,0.5169,0.5328,0.5494,0.5662,0.5828,0.5995,0.6172,0.6329,0.6496,0.6663,0.683,0.6996,0.7163,0.7331,0.7634,0.777,0.7924,0.8095,0.8263,0.8434,0.8595,0.8762,0.8928,0.9093,0.9262,0.9427,0.9593,0.9761,0.9925,1.0093,1.0261,1.0421,1.0587,1.0758,1.0923,1.1088,1.1256,1.1421]","[1,1,1,1,1,1,1,1,1,1,1,1,1,1,1,1,1,1,1,1,1,1,1,1,1,1,1,1,1,1,1,1,1,1,1,1,1,1,1,2,2,2,2,2,2,2,2,2,2,2,2,2,2,2,2,2,2,2,2,2,2,2,2,2,2,2,2,2,2]",9,57.1186,4,21,0,21,0,1,good 2,4,SV_6SxWlNLsoRj8nqK,304B,2022-06-16_14h49.37.328,implicit_time,2021.1.4,Linux x86_64,59.95563283
cursorjump,45,0,0.5,10,NA,0,NA,0,1,0.5,FALSE,practice,1,"[0.0125,0.010417,0.008333,0.008333,0.008333,0.008333,0.008333,0.00625,0.002083,0,-0.002083,-0.002083,-0.002083,-0.002083,-0.002083,-0.002083,-0.002083,-0.002083,-0.002083,-0.002083,-0.002083,-0.002083,-0.002083,0,0.002083,0.014583,0.041667,0.083333,0.108333,0.164583,0.195833,0.266667,0.345833,0.429167,0.470833,0.547917,0.583333,0.645833,0.695833,0.729167,0.7375,0.741667,0.74375,0.745833,0.75,0.75625,0.760417,0.766667,0.770833,0.772917,0.772917,0.772917,0.772917,0.775,0.775,0.775,0.770833,0.752083,0.735417,0.6875,0.65625,0.5875,0.514583,0.44375,0.408333,0.345833,0.291667,0.266667,0.220833,0.18125,0.166667,0.139583,0.127083,0.104167,0.083333,0.072917,0.05,0.03125,0.022917,0.008333,-0.004167,-0.010417,-0.025,-0.039583,-0.045833,-0.058333,-0.0625,-0.0625,-0.0625,-0.060417,-0.058333,-0.052083,-0.047917,-0.04375,-0.039583]","[0.02,0.023111,0.023111,0.023111,0.023111,0.023111,0.023111,0.02,0.02,0.02,0.02,0.02,0.02,0.02,0.02,0.02,0.02,0.02,0.02,0.02,0.02,0.02,0.02,0.02,0.026222,0.044889,0.085333,0.138222,0.169333,0.231556,0.262667,0.331111,0.402667,0.480444,0.517778,0.586222,0.617333,0.670222,0.710667,0.732444,0.738667,0.738667,0.735556,0.735556,0.732444,0.726222,0.723111,0.716889,0.716889,0.713778,0.713778,0.710667,0.710667,0.704444,0.698222,0.695111,0.679556,0.654667,0.636,0.592444,0.564444,0.505333,0.44,0.371556,0.337333,0.275111,0.225333,0.203556,0.166222,0.138222,0.125778,0.113333,0.107111,0.104,0.097778,0.097778,0.094667,0.094667,0.094667,0.091556,0.085333,0.082222,0.066667,0.054222,0.048,0.035556,0.029333,0.026222,0.016889,0.007556,0.004444,-0.001778,-0.001778,-0.001778,-0.004889]","[0.0004,0.0167,0.0328,0.049,0.0577,0.0743,0.0906,0.1073,0.124,0.1406,0.1574,0.1741,0.1905,0.2072,0.2239,0.2408,0.2575,0.2741,0.2907,0.3074,0.3241,0.3409,0.3576,0.3743,0.3908,0.4075,0.4243,0.4411,0.4578,0.4745,0.4911,0.5076,0.5243,0.5413,0.5579,0.5744,0.5911,0.6079,0.6246,0.6414,0.6578,0.6746,0.6912,0.708,0.7247,0.7415,0.7574,0.7749,0.7913,0.808,0.824,0.8416,0.8573,0.8748,0.8915,0.9083,0.9242,0.9408,0.9582,0.9749,0.991,1.0084,1.025,1.0409,1.0575,1.075,1.0917,1.1084,1.1252,1.141,1.1585,1.1751,1.191,1.2086,1.2246,1.2414,1.258,1.2746,1.2923,1.3082,1.3249,1.3414,1.3582,1.3748,1.3915,1.4082,1.4248,1.4416,1.4581,1.4747,1.4915,1.5081,1.5248,1.5414,1.5583]","[1,1,1,1,1,1,1,1,1,1,1,1,1,1,1,1,1,1,1,1,1,1,1,1,1,1,1,1,1,1,1,1,1,1,1,1,1,1,2,2,2,2,2,2,2,2,2,2,2,2,2,2,2,2,2,2,2,2,2,2,2,2,2,2,2,2,2,2,2,2,2,2,2,2,2,2,2,2,2,2,2,2,2,2,2,2,2,2,2,2,2,2,2,2,2]",10,59.1944,4,22,0,22,0,1,good 2,4,SV_6SxWlNLsoRj8nqK,304B,2022-06-16_14h49.37.328,implicit_time,2021.1.4,Linux x86_64,59.95563283
cursorjump,37.5,0,0,10,NA,0,NA,0,0,0.5,FALSE,practice,0,"[0.0125,0.0125,0.010417,0.00625,0.002083,-0.00625,-0.014583,-0.022917,-0.029167,-0.041667,-0.05,-0.072917,-0.102083,-0.135417,-0.152083,-0.189583,-0.20625,-0.2375,-0.258333,-0.26875,-0.283333,-0.3,-0.30625,-0.314583,-0.320833,-0.322917,-0.327083,-0.329167,-0.329167,-0.329167,-0.325,-0.322917,-0.310417,-0.297917,-0.289583,-0.275,-0.258333,-0.25,-0.233333,-0.214583,-0.204167,-0.18125,-0.154167,-0.139583,-0.114583,-0.085417,-0.070833,-0.04375,-0.016667,-0.004167,0.01875,0.041667,0.05,0.060417,0.0625,0.0625,0.058333,0.05,0.04375,0.025,-0.002083,-0.016667,-0.05,-0.085417,-0.104167,-0.141667,-0.1625,-0.202083,-0.245833,-0.28125,-0.289583,-0.295833,-0.295833,-0.3,-0.308333,-0.316667,-0.316667,-0.316667,-0.310417,-0.304167,-0.291667,-0.277083,-0.270833,-0.25625,-0.241667,-0.233333,-0.220833,-0.2125,-0.2,-0.185417,-0.170833,-0.1625,-0.147917,-0.141667,-0.13125,-0.11875,-0.108333,-0.102083,-0.091667,-0.0875,-0.079167,-0.075,-0.072917,-0.072917,-0.075,-0.077083,-0.085417,-0.089583,-0.091667,-0.089583,-0.0875,-0.085417,-0.08125,-0.077083,-0.072917,-0.070833,-0.064583,-0.0625,-0.054167,-0.047917,-0.04375,-0.04375,-0.04375,-0.04375,-0.04375,-0.04375,-0.04375,-0.04375,-0.041667,-0.041667,-0.041667,-0.041667,-0.041667,-0.041667,-0.041667,-0.041667,-0.041667,-0.039583]","[0.001333,0.004444,0.004444,0.007556,0.010667,0.016889,0.032444,0.063556,0.082222,0.135111,0.166222,0.231556,0.303111,0.377778,0.412,0.483556,0.517778,0.586222,0.648444,0.679556,0.729333,0.769778,0.788444,0.819556,0.844444,0.853778,0.869333,0.881778,0.888,0.897333,0.900444,0.897333,0.891111,0.878667,0.869333,0.844444,0.807111,0.782222,0.723111,0.654667,0.620444,0.548889,0.471111,0.430667,0.349778,0.278222,0.244,0.184889,0.132,0.107111,0.072889,0.054222,0.054222,0.063556,0.094667,0.116444,0.178667,0.265778,0.315556,0.418222,0.524,0.58,0.688889,0.797778,0.847556,0.934667,0.972,1.012444,1.009333,0.996889,0.993778,0.990667,0.987556,0.987556,0.984444,0.984444,0.984444,0.981333,0.962667,0.950222,0.909778,0.856889,0.828889,0.763556,0.692,0.654667,0.573778,0.533333,0.452444,0.374667,0.3,0.268889,0.212889,0.188,0.141333,0.100889,0.063556,0.048,0.023111,0.013778,-0.001778,-0.014222,-0.017333,-0.020444,-0.020444,-0.020444,-0.020444,-0.020444,-0.020444,-0.020444,-0.020444,-0.023556,-0.023556,-0.026667,-0.026667,-0.026667,-0.023556,-0.023556,-0.017333,-0.011111,-0.008,-0.008,-0.008,-0.008,-0.008,-0.008,-0.004889,-0.004889,-0.001778,0.001333,0.001333,0.001333,0.001333,0.001333,0.001333,0.001333,0.001333,0.001333]","[0.0002,0.0168,0.0334,0.0499,0.0668,0.0835,0.1001,0.1168,0.1335,0.1505,0.167,0.1836,0.2003,0.2171,0.2337,0.2505,0.2671,0.2838,0.3004,0.3172,0.3338,0.3505,0.3673,0.3839,0.4008,0.4172,0.4341,0.4507,0.4687,0.4845,0.5009,0.5174,0.534,0.5508,0.5676,0.5841,0.6008,0.6174,0.6343,0.651,0.6677,0.6841,0.7009,0.7175,0.7343,0.751,0.7677,0.7842,0.801,0.8178,0.8344,0.8512,0.8678,0.8844,0.9004,0.9179,0.9339,0.9505,0.968,0.984,1.0006,1.0173,1.034,1.0507,1.0674,1.084,1.1008,1.1183,1.1342,1.1517,1.1675,1.1842,1.2009,1.2174,1.2342,1.251,1.2676,1.2843,1.3008,1.3174,1.3342,1.351,1.3678,1.3843,1.401,1.4175,1.4343,1.4512,1.4678,1.4845,1.5012,1.518,1.5344,1.551,1.5677,1.5845,1.6012,1.6178,1.6344,1.6512,1.6679,1.6846,1.7012,1.7178,1.7346,1.7513,1.7681,1.7847,1.8014,1.8179,1.8346,1.8515,1.8682,1.8849,1.9016,1.9183,1.9349,1.9516,1.9684,1.985,2.0014,2.018,2.0348,2.0514,2.0685,2.0851,2.1016,2.1182,2.1352,2.1518,2.1685,2.1856,2.202,2.2187,2.2353,2.2519,2.2687,2.2854]","[1,1,1,1,1,1,1,1,1,1,1,1,1,1,1,1,1,1,1,1,1,1,1,1,1,1,1,1,1,1,1,1,1,1,1,1,1,1,1,1,1,1,1,1,1,1,1,1,1,1,1,1,1,1,1,1,1,1,1,1,1,1,1,1,1,1,2,2,2,2,2,2,2,2,2,2,2,2,2,2,2,2,2,2,2,2,2,2,2,2,2,2,2,2,2,2,2,2,2,2,2,2,2,2,2,2,2,2,2,2,2,2,2,2,2,2,2,2,2,2,2,2,2,2,2,2,2,2,2,2,2,2,2,2,2,2,2,2]",10,61.9975,4,23,0,23,0,1,good 2,4,SV_6SxWlNLsoRj8nqK,304B,2022-06-16_14h49.37.328,implicit_time,2021.1.4,Linux x86_64,59.95563283
cursorjump,135,0,0.5,10,NA,0,NA,0,1,0.5,FALSE,practice,1,"[0.0125,0.0125,0.0125,0.0125,0.0125,0.014583,0.016667,0.020833,0.025,0.027083,0.027083,0.027083,0.027083,0.027083,0.027083,0.027083,0.027083,0.027083,0.025,0.025,0.022917,0.014583,0.00625,-0.016667,-0.033333,-0.072917,-0.125,-0.185417,-0.216667,-0.279167,-0.308333,-0.364583,-0.4125,-0.452083,-0.466667,-0.5,-0.514583,-0.545833,-0.572917,-0.597917,-0.608333,-0.629167,-0.6375,-0.652083,-0.654167,-0.654167,-0.654167,-0.654167,-0.654167,-0.654167,-0.654167,-0.652083,-0.652083,-0.65625,-0.660417,-0.66875,-0.670833,-0.666667,-0.652083,-0.633333,-0.625,-0.602083,-0.5875,-0.554167,-0.516667,-0.48125,-0.464583,-0.429167,-0.4125,-0.375,-0.3375,-0.297917,-0.279167,-0.241667,-0.225,-0.19375,-0.16875,-0.141667,-0.129167,-0.102083,-0.089583,-0.06875,-0.05,-0.035417]","[-0.014222,-0.014222,-0.014222,-0.014222,-0.014222,-0.014222,-0.017333,-0.017333,-0.020444,-0.020444,-0.020444,-0.020444,-0.020444,-0.020444,-0.020444,-0.020444,-0.020444,-0.020444,-0.020444,-0.020444,-0.020444,-0.017333,-0.014222,-0.001778,0.010667,0.041778,0.085333,0.147556,0.178667,0.250222,0.284444,0.356,0.430667,0.511556,0.548889,0.611111,0.639111,0.688889,0.729333,0.766667,0.782222,0.813333,0.828889,0.847556,0.850667,0.850667,0.850667,0.850667,0.850667,0.850667,0.850667,0.847556,0.841333,0.816444,0.800889,0.760444,0.741778,0.710667,0.682667,0.651556,0.636,0.601778,0.583111,0.542667,0.499111,0.455556,0.430667,0.377778,0.349778,0.296889,0.250222,0.209778,0.191111,0.16,0.144444,0.116444,0.091556,0.066667,0.057333,0.035556,0.026222,0.010667,-0.004889,-0.014222]","[0.0003,0.0164,0.033,0.0493,0.0658,0.083,0.0997,0.1164,0.1331,0.15,0.1663,0.1832,0.1997,0.2163,0.2329,0.2499,0.2665,0.2833,0.2999,0.3165,0.3332,0.3501,0.3666,0.3834,0.4001,0.4159,0.4325,0.4501,0.4668,0.4834,0.5001,0.5169,0.5326,0.5502,0.5668,0.5826,0.5994,0.6161,0.6328,0.6503,0.6662,0.683,0.6995,0.7163,0.7329,0.7496,0.7663,0.7828,0.7996,0.8164,0.8329,0.8495,0.8664,0.8831,0.8998,0.9165,0.9333,0.9497,0.9663,0.9833,0.9999,1.0167,1.0332,1.0497,1.0665,1.0833,1.1,1.1167,1.1331,1.15,1.1667,1.1834,1.1999,1.2168,1.2333,1.2499,1.2667,1.2835,1.3001,1.3169,1.3335,1.3501,1.3667,1.3835]","[1,1,1,1,1,1,1,1,1,1,1,1,1,1,1,1,1,1,1,1,1,1,1,1,1,1,1,1,1,1,1,1,1,1,1,1,1,1,1,2,2,2,2,2,2,2,2,2,2,2,2,2,2,2,2,2,2,2,2,2,2,2,2,2,2,2,2,2,2,2,2,2,2,2,2,2,2,2,2,2,2,2,2,2]",11,63.8987,4,24,0,24,0,1,good 2,4,SV_6SxWlNLsoRj8nqK,304B,2022-06-16_14h49.37.328,implicit_time,2021.1.4,Linux x86_64,59.95563283
cursorjump,142.5,0,0,10,NA,0,NA,0,0,0.5,FALSE,practice,0,"[-0.00625,-0.00625,-0.00625,-0.00625,-0.00625,-0.00625,-0.00625,-0.00625,-0.00625,-0.008333,-0.008333,-0.008333,-0.008333,-0.008333,-0.008333,-0.008333,-0.008333,-0.008333,-0.008333,-0.014583,-0.027083,-0.0375,-0.06875,-0.0875,-0.1375,-0.2,-0.272917,-0.310417,-0.38125,-0.4125,-0.470833,-0.527083,-0.5875,-0.61875,-0.68125,-0.710417,-0.76875,-0.820833,-0.854167,-0.8625,-0.8625,-0.860417,-0.858333,-0.85625,-0.85625,-0.854167,-0.847917,-0.839583,-0.81875,-0.7875,-0.747917,-0.725,-0.675,-0.647917,-0.5875,-0.525,-0.464583,-0.433333,-0.375,-0.347917,-0.29375,-0.247917,-0.210417,-0.19375,-0.164583,-0.154167,-0.133333,-0.11875,-0.104167,-0.1,-0.089583,-0.085417,-0.08125,-0.079167,-0.075,-0.072917,-0.070833,-0.070833,-0.06875,-0.06875,-0.06875,-0.06875,-0.06875,-0.06875,-0.0625,-0.05,-0.041667,-0.027083]","[-0.001778,-0.001778,-0.001778,-0.001778,-0.001778,-0.001778,-0.001778,0.001333,0.001333,0.001333,0.001333,0.001333,0.001333,0.001333,0.001333,0.001333,0.001333,0.001333,0.001333,0.007556,0.023111,0.032444,0.054222,0.069778,0.097778,0.128889,0.166222,0.188,0.244,0.275111,0.346667,0.418222,0.480444,0.508444,0.561333,0.583111,0.626667,0.664,0.688889,0.695111,0.695111,0.692,0.692,0.692,0.692,0.688889,0.682667,0.676444,0.654667,0.623556,0.586222,0.564444,0.520889,0.496,0.449333,0.402667,0.352889,0.328,0.278222,0.253333,0.206667,0.163111,0.125778,0.110222,0.079111,0.066667,0.048,0.029333,0.013778,0.004444,-0.008,-0.011111,-0.017333,-0.023556,-0.026667,-0.026667,-0.029778,-0.032889,-0.032889,-0.032889,-0.032889,-0.032889,-0.029778,-0.029778,-0.026667,-0.020444,-0.017333,-0.008]","[0.0007,0.0163,0.0325,0.0494,0.0663,0.0829,0.0999,0.1163,0.1328,0.1499,0.1665,0.1827,0.1993,0.2161,0.2328,0.2493,0.2666,0.2834,0.2999,0.3166,0.3335,0.35,0.3666,0.3836,0.4002,0.4167,0.4334,0.4502,0.467,0.4838,0.5002,0.5171,0.5337,0.5503,0.5669,0.5837,0.6003,0.617,0.6338,0.6505,0.6665,0.683,0.7004,0.7172,0.7339,0.7497,0.7664,0.7839,0.8004,0.8172,0.8339,0.8497,0.8665,0.8839,0.9008,0.9178,0.9332,0.9499,0.9666,0.9832,1,1.0177,1.0333,1.0499,1.0667,1.0834,1.1001,1.1167,1.1334,1.1501,1.1668,1.1834,1.2001,1.2168,1.2335,1.2503,1.267,1.2835,1.3001,1.3169,1.3337,1.3504,1.367,1.3836,1.4002,1.4169,1.4336,1.4505]","[1,1,1,1,1,1,1,1,1,1,1,1,1,1,1,1,1,1,1,1,1,1,1,1,1,1,1,1,1,1,1,1,1,1,1,1,2,2,2,2,2,2,2,2,2,2,2,2,2,2,2,2,2,2,2,2,2,2,2,2,2,2,2,2,2,2,2,2,2,2,2,2,2,2,2,2,2,2,2,2,2,2,2,2,2,2,2,2]",11,65.8669,4,25,0,25,0,1,good 2,4,SV_6SxWlNLsoRj8nqK,304B,2022-06-16_14h49.37.328,implicit_time,2021.1.4,Linux x86_64,59.95563283
cursorjump,75,0,0.5,10,NA,0,NA,0,1,0.5,FALSE,practice,1,"[0.008333,0.008333,0.00625,0.00625,0.00625,0.008333,0.008333,0.008333,0.008333,0.008333,0.008333,0.008333,0.008333,0.008333,0.008333,0.00625,0.004167,0.002083,0,0.002083,0.004167,0.016667,0.027083,0.05625,0.091667,0.13125,0.152083,0.195833,0.214583,0.245833,0.270833,0.291667,0.3,0.31875,0.327083,0.347917,0.360417,0.389583,0.40625,0.40625,0.402083,0.397917,0.395833,0.39375,0.391667,0.389583,0.389583,0.3875,0.385417,0.372917,0.352083,0.320833,0.302083,0.26875,0.239583,0.225,0.202083,0.179167,0.166667,0.14375,0.116667,0.1,0.0625,0.020833,0,-0.035417,-0.0625,-0.070833,-0.085417,-0.09375,-0.097917,-0.102083,-0.104167,-0.104167,-0.102083,-0.1,-0.097917,-0.097917,-0.097917,-0.097917,-0.095833,-0.091667,-0.089583,-0.08125,-0.077083,-0.070833,-0.064583,-0.060417,-0.060417,-0.05625,-0.054167,-0.047917,-0.041667,-0.035417]","[-0.017333,-0.017333,-0.017333,-0.017333,-0.017333,-0.017333,-0.017333,-0.017333,-0.017333,-0.017333,-0.017333,-0.017333,-0.017333,-0.017333,-0.014222,-0.014222,-0.014222,-0.008,-0.004889,0.004444,0.013778,0.041778,0.066667,0.128889,0.206667,0.293778,0.337333,0.424444,0.468,0.548889,0.620444,0.685778,0.716889,0.769778,0.794667,0.841333,0.863111,0.909778,0.937778,0.944,0.944,0.947111,0.947111,0.947111,0.950222,0.950222,0.950222,0.947111,0.944,0.928444,0.900444,0.86,0.835111,0.791556,0.748,0.726222,0.676444,0.614222,0.58,0.508444,0.433778,0.399556,0.328,0.253333,0.216,0.150667,0.097778,0.076,0.038667,0.004444,-0.011111,-0.036,-0.045333,-0.054667,-0.060889,-0.067111,-0.070222,-0.070222,-0.073333,-0.073333,-0.070222,-0.070222,-0.067111,-0.064,-0.060889,-0.051556,-0.042222,-0.036,-0.032889,-0.029778,-0.026667,-0.017333,-0.008,-0.001778]","[0.0006,0.0168,0.0335,0.0501,0.0664,0.0834,0.0996,0.1168,0.1334,0.15,0.1665,0.183,0.2002,0.217,0.2337,0.2505,0.2672,0.2838,0.3005,0.3173,0.3337,0.3505,0.3672,0.3837,0.4007,0.4174,0.434,0.4507,0.4673,0.484,0.5008,0.5173,0.5341,0.5509,0.5675,0.5842,0.6008,0.6176,0.6342,0.651,0.6676,0.6843,0.701,0.7175,0.7345,0.7511,0.7677,0.7843,0.8011,0.8176,0.8343,0.8511,0.8678,0.8846,0.9013,0.9178,0.9336,0.9503,0.967,0.9845,1.0012,1.018,1.0337,1.0507,1.0671,1.0846,1.1013,1.1171,1.1338,1.1514,1.1682,1.1838,1.2006,1.2173,1.234,1.2507,1.2683,1.2849,1.3009,1.3175,1.3341,1.3505,1.3672,1.384,1.4009,1.4176,1.4342,1.4507,1.4674,1.4843,1.5008,1.5177,1.5343,1.5508]","[1,1,1,1,1,1,1,1,1,1,1,1,1,1,1,1,1,1,1,1,1,1,1,1,1,1,1,1,1,1,1,1,1,1,1,1,1,2,2,2,2,2,2,2,2,2,2,2,2,2,2,2,2,2,2,2,2,2,2,2,2,2,2,2,2,2,2,2,2,2,2,2,2,2,2,2,2,2,2,2,2,2,2,2,2,2,2,2,2,2,2,2,2,2]",12,67.9348,4,26,0,26,0,1,good 2,4,SV_6SxWlNLsoRj8nqK,304B,2022-06-16_14h49.37.328,implicit_time,2021.1.4,Linux x86_64,59.95563283
cursorjump,67.5,0,0,10,NA,0,NA,0,0,0.5,FALSE,practice,0,"[0,0,0,0,0,0,0,0,0,0.002083,0.002083,0.004167,0.004167,0.004167,0.004167,0.004167,0.004167,0.002083,0.002083,0,-0.004167,-0.00625,-0.0125,-0.016667,-0.025,-0.039583,-0.058333,-0.06875,-0.09375,-0.104167,-0.129167,-0.15,-0.1625,-0.166667,-0.172917,-0.177083,-0.18125,-0.1875,-0.191667,-0.195833,-0.2,-0.202083,-0.208333,-0.216667,-0.220833,-0.222917,-0.222917,-0.222917,-0.222917,-0.222917,-0.222917,-0.220833,-0.216667,-0.2125,-0.204167,-0.19375,-0.1875,-0.177083,-0.166667,-0.160417,-0.15,-0.139583,-0.1375,-0.13125,-0.120833,-0.1125,-0.09375,-0.075,-0.066667,-0.054167,-0.045833,-0.041667,-0.035417,-0.029167,-0.027083,-0.016667,-0.008333,-0.004167,0.002083,0.004167,0.004167,0.004167,0.002083,0,-0.004167,-0.008333,-0.008333,-0.0125,-0.0125,-0.014583,-0.014583,-0.014583,-0.014583,-0.016667,-0.01875,-0.020833,-0.022917,-0.022917,-0.020833,-0.020833]","[-0.011111,-0.011111,-0.011111,-0.011111,-0.011111,-0.011111,-0.011111,-0.011111,-0.011111,-0.011111,-0.014222,-0.014222,-0.014222,-0.014222,-0.014222,-0.014222,-0.014222,-0.014222,-0.011111,-0.008,0.007556,0.016889,0.048,0.066667,0.113333,0.169333,0.240889,0.278222,0.362222,0.402667,0.483556,0.561333,0.642222,0.682667,0.754222,0.788444,0.847556,0.903556,0.950222,0.972,1.003111,1.012444,1.015556,1.012444,1.009333,1.009333,1.006222,1.006222,1.006222,1.006222,1.006222,1.003111,0.996889,0.990667,0.968889,0.934667,0.916,0.863111,0.800889,0.763556,0.682667,0.592444,0.545778,0.449333,0.359111,0.318667,0.240889,0.172444,0.144444,0.088444,0.038667,0.013778,-0.029778,-0.067111,-0.082667,-0.113778,-0.138667,-0.151111,-0.163556,-0.169778,-0.169778,-0.169778,-0.166667,-0.163556,-0.154222,-0.144889,-0.141778,-0.135556,-0.129333,-0.126222,-0.113778,-0.101333,-0.095111,-0.082667,-0.073333,-0.067111,-0.057778,-0.045333,-0.039111,-0.032889]","[0.0007,0.0161,0.033,0.0497,0.0663,0.083,0.0993,0.1158,0.1331,0.1499,0.1664,0.1831,0.1999,0.2165,0.2332,0.25,0.2664,0.2831,0.3001,0.3168,0.3336,0.3499,0.3665,0.3833,0.4002,0.4169,0.4335,0.4501,0.4667,0.4836,0.5004,0.5171,0.5337,0.5502,0.5669,0.5837,0.6006,0.6171,0.6338,0.6503,0.667,0.6838,0.7005,0.7173,0.7338,0.7503,0.7672,0.7839,0.8007,0.8173,0.834,0.8506,0.8672,0.8842,0.9007,0.9175,0.9339,0.9507,0.9676,0.9843,1.0007,1.0176,1.034,1.051,1.0674,1.0843,1.1002,1.1177,1.1333,1.1509,1.1676,1.1844,1.2,1.2176,1.2344,1.2509,1.2677,1.2844,1.3001,1.3168,1.3331,1.3511,1.3669,1.3837,1.4003,1.4169,1.4336,1.4501,1.467,1.4838,1.5004,1.5171,1.5337,1.5502,1.5669,1.5839,1.6005,1.617,1.6338,1.6504]","[1,1,1,1,1,1,1,1,1,1,1,1,1,1,1,1,1,1,1,1,1,1,1,1,1,1,1,1,1,1,1,1,1,1,1,1,1,1,2,2,2,2,2,2,2,2,2,2,2,2,2,2,2,2,2,2,2,2,2,2,2,2,2,2,2,2,2,2,2,2,2,2,2,2,2,2,2,2,2,2,2,2,2,2,2,2,2,2,2,2,2,2,2,2,2,2,2,2,2,2]",12,70.1029,4,27,0,27,0,1,good 2,4,SV_6SxWlNLsoRj8nqK,304B,2022-06-16_14h49.37.328,implicit_time,2021.1.4,Linux x86_64,59.95563283
cursorjump,45,0,0.5,10,NA,0,NA,0,1,0.5,FALSE,practice,1,"[0.0125,0.0125,0.0125,0.0125,0.0125,0.0125,0.0125,0.0125,0.014583,0.014583,0.016667,0.016667,0.01875,0.01875,0.01875,0.01875,0.01875,0.016667,0.016667,0.020833,0.0375,0.072917,0.09375,0.141667,0.170833,0.235417,0.31875,0.414583,0.460417,0.539583,0.6,0.625,0.675,0.729167,0.754167,0.791667,0.810417,0.814583,0.81875,0.820833,0.820833,0.822917,0.827083,0.829167,0.835417,0.839583,0.839583,0.83125,0.80625,0.789583,0.75,0.7,0.670833,0.610417,0.552083,0.525,0.466667,0.408333,0.377083,0.314583,0.254167,0.229167,0.18125,0.1625,0.13125,0.10625,0.089583,0.083333,0.072917,0.06875,0.060417,0.052083,0.047917,0.04375,0.041667,0.041667,0.039583,0.035417,0.029167]","[0.004444,0.004444,0.004444,0.004444,0.004444,0.004444,0.004444,0.004444,0.004444,0.001333,0.001333,-0.001778,-0.001778,-0.001778,-0.004889,-0.004889,-0.001778,0.004444,0.010667,0.035556,0.079111,0.132,0.163111,0.219111,0.247111,0.309333,0.377778,0.449333,0.483556,0.539556,0.58,0.595556,0.623556,0.648444,0.660889,0.676444,0.679556,0.679556,0.676444,0.673333,0.673333,0.670222,0.667111,0.664,0.657778,0.654667,0.651556,0.651556,0.645333,0.639111,0.617333,0.583111,0.561333,0.514667,0.468,0.443111,0.393333,0.340444,0.309333,0.250222,0.197333,0.172444,0.132,0.116444,0.091556,0.069778,0.054222,0.048,0.044889,0.044889,0.044889,0.044889,0.044889,0.044889,0.044889,0.044889,0.041778,0.032444,0.026222]","[0.0007,0.0165,0.0326,0.0498,0.0658,0.0829,0.0997,0.1161,0.1332,0.1498,0.1664,0.1833,0.2001,0.2166,0.2333,0.2498,0.2665,0.2835,0.3001,0.3167,0.3335,0.35,0.3667,0.3833,0.4002,0.4169,0.4335,0.4501,0.4668,0.4836,0.5003,0.5171,0.5338,0.5503,0.5675,0.5838,0.6004,0.6171,0.6336,0.6503,0.667,0.6839,0.7006,0.7172,0.7338,0.7505,0.7672,0.784,0.8007,0.8173,0.8339,0.8506,0.8675,0.8841,0.9009,0.9175,0.9339,0.9507,0.9676,0.9843,1.001,1.0176,1.0341,1.0507,1.0677,1.0844,1.101,1.1178,1.1342,1.1509,1.1669,1.1835,1.2002,1.2169,1.2336,1.2502,1.2677,1.2836,1.3003]","[1,1,1,1,1,1,1,1,1,1,1,1,1,1,1,1,1,1,1,1,1,1,1,1,1,1,1,1,1,1,1,1,1,2,2,2,2,2,2,2,2,2,2,2,2,2,2,2,2,2,2,2,2,2,2,2,2,2,2,2,2,2,2,2,2,2,2,2,2,2,2,2,2,2,2,2,2,2,2]",13,71.9212,4,28,0,28,0,1,good 2,4,SV_6SxWlNLsoRj8nqK,304B,2022-06-16_14h49.37.328,implicit_time,2021.1.4,Linux x86_64,59.95563283
cursorjump,37.5,0,0,10,NA,0,NA,0,0,0.5,FALSE,practice,0,"[-0.010417,-0.010417,-0.010417,-0.010417,-0.010417,-0.010417,-0.010417,-0.010417,-0.010417,-0.010417,-0.00625,0,0.002083,0,-0.00625,-0.010417,-0.016667,-0.020833,-0.029167,-0.039583,-0.052083,-0.05625,-0.058333,-0.05625,-0.045833,-0.033333,-0.01875,-0.0125,-0.00625,-0.008333,-0.010417,-0.014583,-0.014583,-0.014583,-0.014583,-0.014583,-0.014583,-0.014583,-0.014583,-0.0125,-0.00625,-0.002083,0.00625,0.0125,0.01875,0.022917,0.029167,0.033333,0.04375,0.05,0.05,0.045833,0.033333,0.029167,0.020833,0.01875,0.01875,0.01875,0.020833]","[-0.008,-0.008,-0.008,-0.008,-0.008,-0.008,-0.008,-0.004889,-0.004889,0.010667,0.041778,0.085333,0.110222,0.16,0.209778,0.237778,0.303111,0.337333,0.415111,0.492889,0.573778,0.614222,0.695111,0.735556,0.816444,0.891111,0.956444,0.984444,1.021778,1.028,1.028,1.024889,1.021778,1.021778,1.021778,1.021778,1.021778,1.021778,1.018667,1.015556,1.003111,0.993778,0.962667,0.925333,0.875556,0.850667,0.788444,0.757333,0.679556,0.589333,0.492889,0.443111,0.346667,0.3,0.212889,0.135111,0.072889,0.048,0.007556]","[0.0008,0.0187,0.0331,0.0495,0.0659,0.0829,0.0998,0.1164,0.1331,0.1497,0.1663,0.1834,0.1998,0.2167,0.2335,0.25,0.2667,0.2834,0.3,0.3167,0.3336,0.352,0.367,0.3836,0.4002,0.417,0.4338,0.4503,0.4691,0.49,0.5003,0.5172,0.5338,0.5503,0.5668,0.5836,0.6003,0.6168,0.6337,0.6504,0.6672,0.684,0.7005,0.7174,0.7341,0.7506,0.7672,0.7841,0.8006,0.8192,0.8343,0.8507,0.8673,0.8842,0.9005,0.9171,0.9339,0.9506,0.9673]","[1,1,1,1,1,1,1,1,1,1,1,1,1,1,1,1,1,1,1,1,1,1,1,1,1,1,1,2,2,2,2,2,2,2,2,2,2,2,2,2,2,2,2,2,2,2,2,2,2,2,2,2,2,2,2,2,2,2,2]",13,75.7913,4,29,0,29,0,1,good 2,4,SV_6SxWlNLsoRj8nqK,304B,2022-06-16_14h49.37.328,implicit_time,2021.1.4,Linux x86_64,59.95563283
cursorjump,105,0,0.5,10,NA,0,NA,0,1,0.5,FALSE,practice,1,"[-0.004167,-0.004167,-0.004167,-0.004167,-0.004167,-0.004167,-0.004167,-0.004167,-0.004167,-0.004167,-0.004167,-0.002083,-0.002083,-0.002083,-0.002083,-0.002083,-0.002083,-0.004167,-0.004167,-0.004167,-0.008333,-0.0125,-0.022917,-0.0375,-0.045833,-0.064583,-0.085417,-0.09375,-0.1125,-0.129167,-0.1375,-0.154167,-0.16875,-0.175,-0.18125,-0.185417,-0.1875,-0.191667,-0.195833,-0.197917,-0.195833,-0.191667,-0.1875,-0.1875,-0.1875,-0.1875,-0.189583,-0.189583,-0.189583,-0.183333,-0.166667,-0.15625,-0.1375,-0.13125,-0.120833,-0.114583,-0.1125,-0.1125,-0.108333,-0.10625,-0.097917,-0.091667,-0.085417,-0.08125,-0.075,-0.070833,-0.0625,-0.060417,-0.058333,-0.05625,-0.054167,-0.054167,-0.052083,-0.05,-0.047917,-0.045833,-0.039583,-0.035417,-0.033333,-0.029167,-0.027083,-0.029167,-0.029167,-0.029167,-0.029167,-0.020833,-0.010417]","[-0.008,-0.008,-0.008,-0.008,-0.008,-0.008,-0.008,-0.008,-0.008,-0.008,-0.008,-0.008,-0.008,-0.008,-0.008,-0.008,-0.008,-0.008,-0.008,-0.008,-0.004889,-0.001778,0.007556,0.02,0.032444,0.063556,0.116444,0.150667,0.234667,0.328,0.374667,0.468,0.561333,0.608,0.698222,0.779111,0.841333,0.866222,0.906667,0.925333,0.956444,0.987556,1.009333,1.015556,1.015556,1.015556,1.015556,1.015556,1.012444,1.012444,1.012444,1.009333,0.996889,0.984444,0.953333,0.906667,0.847556,0.813333,0.741778,0.704444,0.626667,0.545778,0.461778,0.421333,0.340444,0.303111,0.234667,0.172444,0.119556,0.097778,0.060444,0.044889,0.02,-0.004889,-0.026667,-0.039111,-0.057778,-0.070222,-0.076444,-0.079556,-0.082667,-0.079556,-0.079556,-0.076444,-0.073333,-0.060889,-0.039111]","[0.0006,0.0184,0.0326,0.0491,0.0658,0.0826,0.0996,0.1158,0.1331,0.1498,0.1663,0.1831,0.1995,0.2163,0.2327,0.2494,0.2663,0.2833,0.3003,0.3164,0.3334,0.3501,0.3667,0.3835,0.4002,0.4167,0.4334,0.4502,0.4667,0.4835,0.5003,0.5167,0.5334,0.5503,0.567,0.5839,0.6006,0.617,0.6336,0.6504,0.6672,0.6861,0.701,0.7171,0.7337,0.7506,0.7673,0.7839,0.801,0.8174,0.834,0.8509,0.8672,0.8839,0.9007,0.9173,0.9339,0.9508,0.9678,0.9841,1.0008,1.0175,1.0341,1.0509,1.0674,1.0841,1.101,1.1174,1.1341,1.151,1.1675,1.1843,1.2011,1.2177,1.2351,1.2514,1.268,1.2845,1.3013,1.3179,1.3348,1.3512,1.3681,1.3847,1.4013,1.4179,1.4349]","[1,1,1,1,1,1,1,1,1,1,1,1,1,1,1,1,1,1,1,1,1,1,1,1,1,1,1,1,1,1,1,1,1,1,1,1,1,1,1,1,2,2,2,2,2,2,2,2,2,2,2,2,2,2,2,2,2,2,2,2,2,2,2,2,2,2,2,2,2,2,2,2,2,2,2,2,2,2,2,2,2,2,2,2,2,2,2]",14,78.0438,4,30,0,30,0,1,good 2,4,SV_6SxWlNLsoRj8nqK,304B,2022-06-16_14h49.37.328,implicit_time,2021.1.4,Linux x86_64,59.95563283
cursorjump,112.5,0,0,10,NA,0,NA,0,0,0.5,FALSE,practice,0,"[-0.00625,-0.00625,-0.00625,-0.00625,-0.004167,-0.004167,-0.004167,-0.004167,-0.002083,-0.002083,-0.002083,0,0,0,0,0,0,0,0,0,-0.004167,-0.008333,-0.01875,-0.025,-0.041667,-0.064583,-0.095833,-0.114583,-0.15625,-0.179167,-0.227083,-0.270833,-0.310417,-0.325,-0.347917,-0.35625,-0.375,-0.395833,-0.40625,-0.408333,-0.410417,-0.4125,-0.4125,-0.4125,-0.4125,-0.4125,-0.4125,-0.4125,-0.410417,-0.402083,-0.389583,-0.383333,-0.360417,-0.33125,-0.314583,-0.277083,-0.2375,-0.21875,-0.18125,-0.147917,-0.133333,-0.108333,-0.083333,-0.070833,-0.05,-0.03125,-0.025]","[0.004444,0.004444,0.004444,0.004444,0.004444,0.001333,0.001333,0.001333,0.001333,0.001333,0.001333,0.001333,0.001333,0.001333,0.001333,0.001333,0.001333,0.001333,0.001333,0.001333,0.004444,0.007556,0.026222,0.038667,0.072889,0.122667,0.181778,0.216,0.290667,0.331111,0.418222,0.514667,0.611111,0.660889,0.760444,0.804,0.884889,0.940889,0.965778,0.965778,0.959556,0.956444,0.956444,0.956444,0.956444,0.956444,0.956444,0.953333,0.950222,0.940889,0.922222,0.906667,0.863111,0.810222,0.776,0.701333,0.620444,0.576889,0.483556,0.393333,0.349778,0.265778,0.191111,0.153778,0.094667,0.048,0.029333]","[0.0005,0.0173,0.0334,0.05,0.0666,0.0834,0.1002,0.1165,0.1333,0.1501,0.1669,0.1833,0.1998,0.2166,0.2333,0.2496,0.2664,0.2831,0.3002,0.3168,0.3335,0.3506,0.3674,0.3836,0.4011,0.4175,0.4342,0.451,0.4697,0.4844,0.5011,0.5177,0.5344,0.5514,0.5677,0.5845,0.6014,0.6179,0.6346,0.6515,0.6679,0.6847,0.7016,0.7175,0.7341,0.7507,0.7676,0.7842,0.8017,0.8181,0.8351,0.8519,0.8682,0.8849,0.9016,0.9184,0.9371,0.9518,0.9684,0.9849,1.0015,1.0184,1.0346,1.0511,1.068,1.0846,1.1011]","[1,1,1,1,1,1,1,1,1,1,1,1,1,1,1,1,1,1,1,1,1,1,1,1,1,1,1,1,1,1,1,1,1,1,1,1,2,2,2,2,2,2,2,2,2,2,2,2,2,2,2,2,2,2,2,2,2,2,2,2,2,2,2,2,2,2,2]",14,79.662,4,31,0,31,0,1,good 2,4,SV_6SxWlNLsoRj8nqK,304B,2022-06-16_14h49.37.328,implicit_time,2021.1.4,Linux x86_64,59.95563283
cursorjump,105,0,0.5,10,NA,0,NA,0,1,0.5,FALSE,baseline,1,"[0.01875,0.01875,0.01875,0.016667,0.014583,0.014583,0.014583,0.014583,0.014583,0.0125,0.008333,0.008333,0.004167,0.002083,0.002083,0.002083,0.002083,0.002083,0.002083,0.002083,0.002083,0.002083,0.002083,0.002083,0,-0.008333,-0.020833,-0.027083,-0.045833,-0.054167,-0.077083,-0.110417,-0.152083,-0.177083,-0.23125,-0.260417,-0.3125,-0.354167,-0.383333,-0.39375,-0.408333,-0.414583,-0.416667,-0.416667,-0.414583,-0.414583,-0.414583,-0.414583,-0.414583,-0.414583,-0.414583,-0.4125,-0.404167,-0.395833,-0.370833,-0.339583,-0.304167,-0.285417,-0.245833,-0.225,-0.185417,-0.152083,-0.125,-0.110417,-0.085417,-0.072917,-0.05625,-0.045833,-0.04375,-0.039583,-0.039583,-0.039583,-0.041667,-0.047917,-0.054167,-0.066667,-0.072917,-0.072917,-0.072917,-0.06875,-0.064583,-0.0625,-0.060417,-0.058333,-0.052083,-0.04375,-0.041667,-0.035417]","[0.026222,0.026222,0.026222,0.026222,0.026222,0.026222,0.026222,0.026222,0.026222,0.026222,0.02,0.016889,0.010667,0.004444,0.001333,0.001333,0.001333,0.001333,0.001333,0.001333,0.001333,0.001333,0.001333,0.001333,0.004444,0.013778,0.032444,0.044889,0.079111,0.104,0.166222,0.244,0.334222,0.380889,0.477333,0.527111,0.626667,0.723111,0.810222,0.850667,0.919111,0.956444,0.962667,0.962667,0.959556,0.959556,0.959556,0.959556,0.956444,0.956444,0.959556,0.959556,0.956444,0.953333,0.937778,0.906667,0.86,0.828889,0.760444,0.723111,0.642222,0.564444,0.499111,0.468,0.412,0.380889,0.328,0.281333,0.259556,0.222222,0.191111,0.178667,0.156889,0.138222,0.128889,0.113333,0.097778,0.091556,0.079111,0.072889,0.069778,0.063556,0.060444,0.057333,0.044889,0.032444,0.029333,0.02]","[0.0007,0.0185,0.0334,0.0499,0.0669,0.0833,0.0994,0.1166,0.1333,0.15,0.1667,0.1844,0.2001,0.2169,0.2335,0.25,0.2668,0.2829,0.3001,0.317,0.3335,0.3496,0.367,0.3849,0.4005,0.4174,0.4339,0.4504,0.4693,0.4842,0.5004,0.5174,0.5339,0.5505,0.5674,0.5838,0.6006,0.6174,0.6341,0.6505,0.6675,0.6865,0.701,0.7175,0.7348,0.7507,0.7678,0.7843,0.8009,0.8177,0.8343,0.8508,0.8677,0.8842,0.9009,0.9177,0.9342,0.951,0.9678,0.9846,1.0011,1.0178,1.0344,1.0511,1.068,1.0844,1.101,1.118,1.1346,1.1541,1.1682,1.1845,1.2013,1.2181,1.2346,1.2513,1.2683,1.2847,1.3015,1.3183,1.3346,1.3514,1.3682,1.3848,1.4015,1.4185,1.4348,1.4537]","[1,1,1,1,1,1,1,1,1,1,1,1,1,1,1,1,1,1,1,1,1,1,1,1,1,1,1,1,1,1,1,1,1,1,1,1,1,1,1,1,2,2,2,2,2,2,2,2,2,2,2,2,2,2,2,2,2,2,2,2,2,2,2,2,2,2,2,2,2,2,2,2,2,2,2,2,2,2,2,2,2,2,2,2,2,2,2,2]",1,84.571,4,32,0,32,0,1,good 2,4,SV_6SxWlNLsoRj8nqK,304B,2022-06-16_14h49.37.328,implicit_time,2021.1.4,Linux x86_64,59.95563283
cursorjump,112.5,0,0,10,NA,0,NA,0,0,0.5,FALSE,baseline,0,"[0.002083,0.002083,0.002083,0.002083,0.002083,0.00625,0.008333,0.010417,0.010417,0.0125,0.0125,0.0125,0.014583,0.016667,0.01875,0.01875,0.014583,-0.00625,-0.041667,-0.083333,-0.108333,-0.158333,-0.185417,-0.233333,-0.279167,-0.302083,-0.347917,-0.39375,-0.416667,-0.45625,-0.479167,-0.485417,-0.4875,-0.4875,-0.4875,-0.4875,-0.483333,-0.479167,-0.464583,-0.44375,-0.433333,-0.40625,-0.379167,-0.364583,-0.329167,-0.2875,-0.264583,-0.21875,-0.172917,-0.15,-0.108333,-0.070833,-0.054167,-0.025,-0.004167]","[-0.017333,-0.017333,-0.017333,-0.017333,-0.017333,-0.020444,-0.023556,-0.023556,-0.023556,-0.023556,-0.020444,-0.011111,0.010667,0.041778,0.060444,0.104,0.132,0.197333,0.272,0.352889,0.393333,0.477333,0.520889,0.608,0.692,0.729333,0.794667,0.847556,0.869333,0.906667,0.934667,0.937778,0.937778,0.937778,0.937778,0.937778,0.937778,0.937778,0.937778,0.928444,0.919111,0.888,0.835111,0.800889,0.72,0.623556,0.573778,0.474222,0.374667,0.328,0.234667,0.147556,0.110222,0.048,0.004444]","[0.0003,0.0221,0.0371,0.0544,0.0709,0.0877,0.1045,0.1209,0.1375,0.1545,0.1711,0.188,0.2046,0.2211,0.2382,0.2551,0.2719,0.2889,0.3054,0.3217,0.3386,0.3554,0.3719,0.3887,0.4054,0.4219,0.4386,0.4558,0.4721,0.4887,0.5056,0.5221,0.5386,0.5555,0.5715,0.5882,0.6051,0.6221,0.639,0.6559,0.6723,0.69,0.7057,0.7222,0.739,0.7559,0.7723,0.789,0.8067,0.8224,0.839,0.8555,0.872,0.8885,0.9053]","[1,1,1,1,1,1,1,1,1,1,1,1,1,1,1,1,1,1,1,1,1,1,1,1,1,1,1,1,2,2,2,2,2,2,2,2,2,2,2,2,2,2,2,2,2,2,2,2,2,2,2,2,2,2,2]",1,85.9863,4,33,0,33,0,1,good 2,4,SV_6SxWlNLsoRj8nqK,304B,2022-06-16_14h49.37.328,implicit_time,2021.1.4,Linux x86_64,59.95563283
cursorjump,75,0,0.5,10,NA,0,NA,0,1,0.5,FALSE,baseline,1,"[0.0125,0.010417,0.008333,0.00625,0.00625,0.00625,0.00625,0.00625,0.00625,0.00625,0.00625,0.00625,0.00625,0.00625,0.00625,0.004167,-0.00625,-0.0125,-0.025,-0.0375,-0.04375,-0.05625,-0.064583,-0.0625,-0.05,-0.025,-0.008333,0.039583,0.104167,0.14375,0.225,0.295833,0.320833,0.347917,0.354167,0.354167,0.354167,0.35625,0.358333,0.360417,0.3625,0.3625,0.3625,0.3625,0.364583,0.366667,0.36875,0.36875,0.360417,0.339583,0.322917,0.291667,0.2625,0.245833,0.208333,0.158333,0.13125,0.072917,0.04375,-0.004167,-0.041667,-0.06875,-0.08125,-0.1,-0.10625,-0.1125,-0.114583,-0.114583,-0.1125,-0.108333,-0.104167,-0.095833,-0.083333,-0.066667,-0.05625,-0.041667,-0.035417,-0.025,-0.020833,-0.016667,-0.016667,-0.014583,-0.014583,-0.014583,-0.016667,-0.020833,-0.022917,-0.025]","[-0.004889,-0.004889,-0.004889,-0.004889,-0.004889,-0.004889,-0.004889,-0.004889,-0.004889,-0.004889,-0.004889,-0.004889,-0.004889,-0.004889,-0.004889,-0.001778,0.010667,0.02,0.054222,0.097778,0.125778,0.197333,0.284444,0.337333,0.443111,0.548889,0.598667,0.688889,0.772889,0.807111,0.869333,0.912889,0.925333,0.937778,0.940889,0.944,0.947111,0.953333,0.956444,0.962667,0.962667,0.962667,0.962667,0.962667,0.962667,0.959556,0.947111,0.937778,0.912889,0.872444,0.850667,0.800889,0.751111,0.723111,0.654667,0.573778,0.530222,0.443111,0.405778,0.331111,0.265778,0.203556,0.175556,0.128889,0.110222,0.088444,0.076,0.072889,0.069778,0.069778,0.069778,0.076,0.085333,0.100889,0.107111,0.113333,0.113333,0.113333,0.107111,0.104,0.100889,0.094667,0.088444,0.076,0.060444,0.044889,0.038667,0.026222]","[0.0006,0.017,0.033,0.0496,0.0666,0.083,0.0997,0.1165,0.133,0.1499,0.1665,0.1831,0.1997,0.2165,0.2331,0.2496,0.2669,0.2833,0.2998,0.3169,0.3333,0.3499,0.3667,0.3835,0.4,0.4169,0.4335,0.4501,0.4669,0.4834,0.5001,0.517,0.5364,0.5506,0.5673,0.5834,0.6003,0.6171,0.6336,0.6503,0.6678,0.6832,0.7002,0.7172,0.7337,0.7509,0.7676,0.7842,0.8004,0.8175,0.8338,0.8527,0.8684,0.8845,0.9009,0.9176,0.934,0.9507,0.9678,0.984,1.0007,1.0179,1.0343,1.0509,1.0676,1.0842,1.101,1.1178,1.1342,1.1509,1.1678,1.1844,1.2009,1.2178,1.2344,1.2512,1.2679,1.2843,1.301,1.318,1.3346,1.3512,1.3679,1.3844,1.4011,1.4181,1.4345,1.4513]","[1,1,1,1,1,1,1,1,1,1,1,1,1,1,1,1,1,1,1,1,1,1,1,1,1,1,1,1,1,1,1,2,2,2,2,2,2,2,2,2,2,2,2,2,2,2,2,2,2,2,2,2,2,2,2,2,2,2,2,2,2,2,2,2,2,2,2,2,2,2,2,2,2,2,2,2,2,2,2,2,2,2,2,2,2,2,2,2]",2,88.274,4,34,0,34,0,1,good 2,4,SV_6SxWlNLsoRj8nqK,304B,2022-06-16_14h49.37.328,implicit_time,2021.1.4,Linux x86_64,59.95563283
cursorjump,67.5,0,0,10,NA,0,NA,0,0,0.5,FALSE,baseline,0,"[-0.010417,-0.010417,-0.0125,-0.0125,-0.0125,-0.0125,-0.0125,-0.0125,-0.0125,-0.0125,-0.010417,-0.008333,-0.00625,-0.00625,-0.00625,-0.00625,-0.00625,-0.00625,-0.00625,-0.00625,-0.00625,-0.00625,-0.002083,0,0.00625,0.004167,-0.008333,-0.016667,-0.033333,-0.04375,-0.045833,-0.04375,-0.045833,-0.05,-0.064583,-0.079167,-0.08125,-0.08125,-0.08125,-0.08125,-0.08125,-0.079167,-0.075,-0.070833,-0.060417,-0.05625,-0.045833,-0.041667,-0.0375,-0.035417,-0.03125,-0.027083,-0.014583,0,0.016667,0.020833,0.027083,0.027083,0.03125,0.035417,0.041667,0.04375,0.047917,0.05,0.052083,0.05625,0.060417,0.0625,0.064583,0.064583,0.064583,0.064583,0.060417,0.05625,0.05,0.045833,0.0375]","[-0.026667,-0.023556,-0.023556,-0.017333,-0.014222,-0.014222,-0.014222,-0.014222,-0.014222,-0.011111,-0.004889,-0.001778,0.001333,0.001333,0.001333,0.001333,0.001333,0.001333,0.004444,0.010667,0.029333,0.069778,0.135111,0.181778,0.337333,0.393333,0.502222,0.555111,0.660889,0.772889,0.884889,0.934667,1.009333,1.024889,1.028,1.024889,1.024889,1.021778,1.021778,1.021778,1.021778,1.021778,1.021778,1.015556,0.996889,0.981333,0.934667,0.872444,0.794667,0.751111,0.660889,0.614222,0.517778,0.421333,0.321778,0.275111,0.184889,0.144444,0.079111,0.029333,0.001333,-0.008,-0.020444,-0.026667,-0.029778,-0.029778,-0.032889,-0.032889,-0.032889,-0.032889,-0.032889,-0.032889,-0.029778,-0.029778,-0.023556,-0.020444,-0.014222]","[0.0002,0.0165,0.0332,0.0499,0.0667,0.0834,0.1,0.1166,0.1333,0.15,0.1667,0.1835,0.2001,0.2176,0.2336,0.2501,0.2677,0.2837,0.3002,0.3178,0.3336,0.3503,0.3678,0.3846,0.4076,0.4242,0.441,0.4575,0.4745,0.4911,0.5076,0.5245,0.5411,0.558,0.5748,0.5911,0.6077,0.6247,0.6413,0.6573,0.6741,0.6909,0.7079,0.7249,0.7414,0.7581,0.7748,0.7922,0.808,0.8249,0.8415,0.8581,0.875,0.8914,0.9082,0.925,0.941,0.9576,0.9745,0.9917,1.0078,1.0253,1.0414,1.0581,1.0748,1.0913,1.1079,1.1251,1.1416,1.158,1.1748,1.1913,1.2079,1.2249,1.2414,1.2583,1.2749]","[1,1,1,1,1,1,1,1,1,1,1,1,1,1,1,1,1,1,1,1,1,1,1,1,1,1,1,1,1,1,1,1,2,2,2,2,2,2,2,2,2,2,2,2,2,2,2,2,2,2,2,2,2,2,2,2,2,2,2,2,2,2,2,2,2,2,2,2,2,2,2,2,2,2,2,2,2]",2,90.058,4,35,0,35,0,1,good 2,4,SV_6SxWlNLsoRj8nqK,304B,2022-06-16_14h49.37.328,implicit_time,2021.1.4,Linux x86_64,59.95563283
cursorjump,45,0,0.5,10,NA,0,NA,0,1,0.5,FALSE,baseline,1,"[0.014583,0.014583,0.0125,0.0125,0.0125,0.0125,0.0125,0.0125,0.010417,0.010417,0.004167,0.002083,-0.004167,-0.010417,-0.016667,-0.020833,-0.027083,-0.03125,-0.029167,-0.01875,-0.002083,0.008333,0.027083,0.0375,0.05625,0.077083,0.097917,0.108333,0.127083,0.1375,0.158333,0.175,0.172917,0.164583,0.15625,0.154167,0.160417,0.185417,0.225,0.245833,0.289583,0.314583,0.360417,0.408333,0.429167,0.46875,0.510417,0.53125,0.570833,0.585417,0.610417,0.627083,0.629167,0.622917,0.585417,0.554167,0.466667,0.372917,0.295833,0.264583,0.214583,0.19375,0.15,0.110417,0.079167,0.06875,0.052083,0.04375,0.039583,0.0375,0.035417,0.035417,0.035417,0.0375,0.0375,0.041667,0.04375,0.045833,0.04375,0.0375,0.033333,0.020833,0.010417]","[-0.004889,-0.011111,-0.017333,-0.017333,-0.020444,-0.020444,-0.020444,-0.020444,-0.020444,-0.017333,-0.017333,-0.017333,-0.014222,-0.011111,-0.008,-0.004889,0.010667,0.02,0.060444,0.122667,0.200444,0.244,0.331111,0.377778,0.474222,0.576889,0.676444,0.723111,0.810222,0.853778,0.934667,0.993778,1.015556,1.015556,1.015556,1.012444,1.012444,1.006222,0.993778,0.987556,0.962667,0.950222,0.912889,0.875556,0.856889,0.828889,0.807111,0.797778,0.779111,0.769778,0.748,0.72,0.682667,0.660889,0.604889,0.573778,0.505333,0.433778,0.371556,0.346667,0.3,0.278222,0.237778,0.203556,0.184889,0.178667,0.181778,0.188,0.191111,0.194222,0.197333,0.197333,0.194222,0.188,0.178667,0.156889,0.125778,0.110222,0.085333,0.066667,0.057333,0.044889,0.032444]","[0.0001,0.0165,0.0331,0.0499,0.0665,0.0831,0.1,0.1165,0.1332,0.1501,0.1665,0.1833,0.2,0.2166,0.2333,0.2502,0.2668,0.2835,0.3002,0.317,0.3335,0.3504,0.367,0.3837,0.4003,0.4168,0.4335,0.4503,0.4669,0.4837,0.5004,0.5172,0.5337,0.5503,0.5669,0.5837,0.6004,0.617,0.6338,0.6503,0.6671,0.6829,0.7005,0.7171,0.7329,0.7506,0.7672,0.7831,0.7998,0.8164,0.8339,0.8507,0.8665,0.8834,0.9,0.9164,0.9341,0.95,0.9668,0.9834,1.0001,1.0166,1.0335,1.0501,1.0667,1.0836,1.1003,1.117,1.1336,1.1503,1.167,1.1835,1.2004,1.217,1.2337,1.2505,1.2671,1.2837,1.3005,1.3172,1.3338,1.3505,1.3673]","[1,1,1,1,1,1,1,1,1,1,1,1,1,1,1,1,1,1,1,1,1,1,1,1,1,1,1,1,1,1,1,2,2,2,2,2,2,2,2,2,2,2,2,2,2,2,2,2,2,2,2,2,2,2,2,2,2,2,2,2,2,2,2,2,2,2,2,2,2,2,2,2,2,2,2,2,2,2,2,2,2,2,2]",2,91.9352,4,36,0,36,0,1,good 2,4,SV_6SxWlNLsoRj8nqK,304B,2022-06-16_14h49.37.328,implicit_time,2021.1.4,Linux x86_64,59.95563283
cursorjump,52.5,0,0,10,NA,0,NA,0,0,0.5,FALSE,baseline,0,"[-0.020833,-0.01875,-0.01875,-0.016667,-0.016667,-0.016667,-0.016667,-0.016667,-0.016667,-0.016667,-0.016667,-0.016667,-0.016667,-0.016667,-0.016667,-0.016667,-0.016667,-0.016667,-0.016667,-0.014583,-0.008333,0,0.03125,0.05,0.097917,0.158333,0.241667,0.289583,0.397917,0.454167,0.55625,0.645833,0.71875,0.739583,0.754167,0.754167,0.754167,0.754167,0.754167,0.75625,0.758333,0.760417,0.7625,0.758333,0.75,0.74375,0.729167,0.722917,0.708333,0.691667,0.670833,0.654167,0.608333,0.58125,0.520833,0.454167,0.383333,0.345833,0.275,0.214583,0.1875,0.14375,0.110417,0.097917,0.077083,0.060417,0.05625,0.047917,0.045833,0.04375,0.04375,0.04375,0.04375,0.04375,0.041667,0.0375,0.033333,0.03125,0.025,0.01875,0.016667,0.014583,0.0125]","[-0.023556,-0.026667,-0.026667,-0.026667,-0.026667,-0.026667,-0.026667,-0.026667,-0.026667,-0.026667,-0.026667,-0.029778,-0.029778,-0.029778,-0.029778,-0.029778,-0.029778,-0.029778,-0.026667,-0.026667,-0.008,0.013778,0.072889,0.107111,0.178667,0.253333,0.337333,0.387111,0.483556,0.527111,0.604889,0.664,0.707556,0.72,0.729333,0.729333,0.726222,0.726222,0.726222,0.726222,0.723111,0.723111,0.72,0.713778,0.707556,0.701333,0.688889,0.682667,0.667111,0.648444,0.617333,0.598667,0.552,0.524,0.464889,0.402667,0.331111,0.296889,0.222222,0.156889,0.128889,0.076,0.035556,0.02,-0.011111,-0.036,-0.045333,-0.060889,-0.064,-0.070222,-0.073333,-0.073333,-0.073333,-0.073333,-0.073333,-0.070222,-0.067111,-0.067111,-0.060889,-0.054667,-0.051556,-0.045333,-0.039111]","[0.0002,0.0166,0.033,0.0498,0.0665,0.083,0.0998,0.1165,0.1332,0.1498,0.1667,0.1832,0.2,0.2167,0.2333,0.2498,0.2667,0.2831,0.2999,0.3168,0.3334,0.3502,0.3669,0.3834,0.4,0.4169,0.4336,0.4503,0.467,0.4837,0.5005,0.5171,0.5337,0.5505,0.5671,0.5837,0.6005,0.6172,0.6338,0.6505,0.6672,0.6839,0.7007,0.7164,0.7338,0.7504,0.7664,0.784,0.8007,0.8173,0.8341,0.8508,0.8665,0.8842,0.8998,0.9166,0.9332,0.9499,0.9666,0.9842,1,1.0167,1.0334,1.0509,1.0666,1.0842,1.1009,1.1169,1.1334,1.1501,1.1668,1.1844,1.2001,1.2169,1.2335,1.2503,1.2669,1.2835,1.3004,1.3169,1.3337,1.3504,1.3669]","[1,1,1,1,1,1,1,1,1,1,1,1,1,1,1,1,1,1,1,1,1,1,1,1,1,1,1,1,1,1,1,1,2,2,2,2,2,2,2,2,2,2,2,2,2,2,2,2,2,2,2,2,2,2,2,2,2,2,2,2,2,2,2,2,2,2,2,2,2,2,2,2,2,2,2,2,2,2,2,2,2,2,2]",2,93.8195,4,37,0,37,0,1,good 2,4,SV_6SxWlNLsoRj8nqK,304B,2022-06-16_14h49.37.328,implicit_time,2021.1.4,Linux x86_64,59.95563283
cursorjump,135,0,0.5,10,NA,0,NA,0,1,0.5,FALSE,baseline,1,"[0.01875,0.01875,0.01875,0.01875,0.01875,0.01875,0.01875,0.01875,0.01875,0.01875,0.01875,0.016667,0.010417,0.008333,0.002083,0.002083,0,0,-0.002083,-0.00625,-0.016667,-0.027083,-0.052083,-0.06875,-0.1375,-0.164583,-0.222917,-0.254167,-0.316667,-0.379167,-0.4125,-0.477083,-0.539583,-0.566667,-0.614583,-0.654167,-0.672917,-0.704167,-0.73125,-0.741667,-0.758333,-0.766667,-0.76875,-0.76875,-0.76875,-0.766667,-0.764583,-0.760417,-0.75625,-0.741667,-0.720833,-0.704167,-0.664583,-0.616667,-0.591667,-0.541667,-0.49375,-0.470833,-0.420833,-0.370833,-0.347917,-0.304167,-0.266667,-0.25,-0.21875,-0.20625,-0.18125,-0.158333,-0.135417,-0.125,-0.10625,-0.097917,-0.0875,-0.079167,-0.072917,-0.066667,-0.05625,-0.05,-0.041667,-0.035417]","[0.016889,0.016889,0.016889,0.016889,0.016889,0.016889,0.016889,0.016889,0.016889,0.016889,0.02,0.02,0.026222,0.029333,0.035556,0.035556,0.035556,0.038667,0.041778,0.048,0.066667,0.082222,0.119556,0.141333,0.216,0.240889,0.3,0.334222,0.402667,0.471111,0.499111,0.548889,0.595556,0.617333,0.660889,0.695111,0.710667,0.735556,0.754222,0.763556,0.772889,0.779111,0.779111,0.779111,0.779111,0.776,0.776,0.772889,0.766667,0.754222,0.732444,0.716889,0.685778,0.648444,0.626667,0.576889,0.520889,0.492889,0.436889,0.384,0.362222,0.312444,0.268889,0.247111,0.209778,0.194222,0.166222,0.138222,0.113333,0.104,0.085333,0.076,0.063556,0.051111,0.038667,0.032444,0.02,0.016889,0.010667,0.007556]","[0.0002,0.0167,0.0333,0.0498,0.0666,0.0834,0.0999,0.1166,0.1333,0.1498,0.1666,0.1835,0.2002,0.2169,0.2336,0.2501,0.2668,0.2836,0.3004,0.317,0.3337,0.3504,0.3669,0.3835,0.4004,0.4171,0.4338,0.4504,0.4671,0.4838,0.5005,0.5173,0.5339,0.5505,0.5672,0.5841,0.6007,0.6173,0.634,0.6505,0.6672,0.6841,0.7007,0.7174,0.7341,0.7507,0.7675,0.7841,0.8008,0.8175,0.8342,0.8509,0.8677,0.8843,0.901,0.9176,0.9344,0.951,0.9677,0.9843,1.0009,1.0176,1.0345,1.0511,1.0678,1.0837,1.1013,1.1177,1.1346,1.1512,1.1671,1.1839,1.2014,1.218,1.2347,1.2514,1.2671,1.284,1.3012,1.318]","[1,1,1,1,1,1,1,1,1,1,1,1,1,1,1,1,1,1,1,1,1,1,1,1,1,1,1,1,1,1,1,1,1,1,1,1,2,2,2,2,2,2,2,2,2,2,2,2,2,2,2,2,2,2,2,2,2,2,2,2,2,2,2,2,2,2,2,2,2,2,2,2,2,2,2,2,2,2,2,2]",3,95.6552,4,38,0,38,0,1,good 2,4,SV_6SxWlNLsoRj8nqK,304B,2022-06-16_14h49.37.328,implicit_time,2021.1.4,Linux x86_64,59.95563283
