condition_label,target,rotation_deg,cursorjump,targetjump,arrow_offset,aiming_target,aiming_direction,aiming_type,feedback_type,hold_duration,hold_target,phase,trialtype,mousex_rel,mousey_rel,mouse_time,step,points,cumulativetime,version,trials.thisRepN,trials.thisTrialN,trials.thisN,trials.thisIndex,trials.ran,participant,condition,qualtrics,group,date,expName,psychopyVersion,OS,frameRate
cursorjump,75,0,0.5,10,NA,0,NA,0,1,0.5,FALSE,practice,1,"[-0.0125,-0.016667,-0.016667,-0.016667,-0.016667,-0.01875,-0.01875,-0.01875,-0.016667,-0.014583,-0.010417,-0.008333,-0.004167,-0.002083,-0.002083,-0.002083,-0.002083,-0.002083,-0.002083,-0.002083,-0.002083,-0.002083,-0.002083,-0.002083,-0.002083,-0.002083,-0.002083,-0.002083,-0.002083,-0.002083,-0.002083,-0.004167,-0.004167,-0.004167,-0.004167,-0.004167,-0.004167,-0.004167,-0.004167,-0.004167,-0.004167,-0.002083,0.004167,0.010417,0.01875,0.022917,0.03125,0.035417,0.041667,0.05,0.05625,0.060417,0.06875,0.075,0.091667,0.1125,0.122917,0.1375,0.154167,0.166667,0.191667,0.216667,0.227083,0.245833,0.2625,0.26875,0.279167,0.2875,0.29375,0.304167,0.316667,0.322917,0.33125,0.335417,0.341667,0.347917,0.352083,0.354167,0.354167,0.354167,0.354167,0.354167,0.354167,0.354167,0.35625,0.354167,0.354167,0.34375,0.322917,0.310417,0.285417,0.272917,0.252083,0.233333,0.2125,0.204167,0.191667,0.1875,0.179167,0.177083,0.175,0.175,0.177083,0.177083,0.177083,0.175,0.172917,0.170833,0.16875,0.166667,0.164583,0.160417,0.154167,0.152083,0.145833,0.14375,0.1375,0.13125,0.120833,0.116667,0.110417,0.108333,0.102083,0.095833,0.089583,0.085417,0.079167,0.072917,0.06875,0.060417,0.052083,0.047917,0.04375,0.04375,0.04375,0.04375,0.04375,0.04375,0.04375,0.04375,0.04375,0.04375,0.04375,0.041667,0.0375,0.035417,0.027083,0.020833]","[-0.011111,-0.017333,-0.017333,-0.020444,-0.020444,-0.023556,-0.023556,-0.029778,-0.032889,-0.045333,-0.060889,-0.067111,-0.076444,-0.082667,-0.082667,-0.082667,-0.082667,-0.082667,-0.082667,-0.082667,-0.082667,-0.082667,-0.082667,-0.082667,-0.082667,-0.082667,-0.082667,-0.079556,-0.079556,-0.076444,-0.076444,-0.076444,-0.076444,-0.076444,-0.076444,-0.076444,-0.076444,-0.073333,-0.070222,-0.054667,-0.026667,-0.008,0.026222,0.051111,0.076,0.088444,0.116444,0.128889,0.147556,0.169333,0.191111,0.206667,0.240889,0.262667,0.315556,0.371556,0.402667,0.452444,0.499111,0.524,0.573778,0.620444,0.642222,0.682667,0.713778,0.729333,0.754222,0.779111,0.794667,0.825778,0.856889,0.872444,0.900444,0.912889,0.928444,0.940889,0.953333,0.959556,0.959556,0.956444,0.956444,0.956444,0.956444,0.956444,0.956444,0.956444,0.956444,0.944,0.912889,0.891111,0.838222,0.810222,0.754222,0.707556,0.667111,0.648444,0.617333,0.604889,0.576889,0.545778,0.514667,0.502222,0.477333,0.468,0.449333,0.427556,0.399556,0.387111,0.356,0.340444,0.309333,0.278222,0.247111,0.234667,0.206667,0.197333,0.188,0.178667,0.166222,0.16,0.150667,0.147556,0.138222,0.125778,0.116444,0.113333,0.107111,0.097778,0.094667,0.085333,0.076,0.069778,0.063556,0.063556,0.063556,0.063556,0.063556,0.063556,0.063556,0.063556,0.063556,0.063556,0.063556,0.063556,0.057333,0.054222,0.044889,0.035556]","[0.0012,0.0285,0.0343,0.0482,0.0649,0.0821,0.0982,0.1145,0.1314,0.1485,0.1656,0.1817,0.1988,0.2153,0.2315,0.2484,0.2654,0.2813,0.2986,0.3149,0.332,0.348,0.3645,0.3816,0.399,0.415,0.4318,0.4479,0.465,0.4824,0.4985,0.5158,0.5322,0.548,0.5651,0.5815,0.5986,0.6151,0.6318,0.6481,0.665,0.6816,0.6984,0.7155,0.7324,0.7481,0.765,0.7819,0.7985,0.8154,0.8327,0.8485,0.8655,0.8822,0.8988,0.9152,0.9321,0.9491,0.965,0.9825,0.9985,1.0156,1.0319,1.049,1.0655,1.0828,1.0992,1.1163,1.1322,1.1486,1.1655,1.1827,1.1994,1.2159,1.2323,1.2495,1.2655,1.2827,1.2988,1.3156,1.332,1.3488,1.3657,1.3825,1.3988,1.4161,1.4322,1.4489,1.4658,1.4825,1.4992,1.5163,1.5324,1.5491,1.5663,1.5824,1.5991,1.6161,1.6323,1.6495,1.6659,1.6831,1.6992,1.7159,1.7325,1.7493,1.7664,1.7824,1.7999,1.8161,1.833,1.8491,1.8657,1.8828,1.899,1.9163,1.9326,1.9491,1.9658,1.9828,1.9999,2.016,2.0326,2.0493,2.066,2.0827,2.0999,2.1164,2.1332,2.1493,2.1661,2.1827,2.1993,2.2162,2.2329,2.2494,2.266,2.2826,2.2994,2.316,2.3328,2.3494,2.3661,2.3829,2.3996,2.4162,2.4329,2.4496]","[1,1,1,1,1,1,1,1,1,1,1,1,1,1,1,1,1,1,1,1,1,1,1,1,1,1,1,1,1,1,1,1,1,1,1,1,1,1,1,1,1,1,1,1,1,1,1,1,1,1,1,1,1,1,1,1,1,1,1,1,1,1,1,1,1,1,1,1,1,1,1,1,2,2,2,2,2,2,2,2,2,2,2,2,2,2,2,2,2,2,2,2,2,2,2,2,2,2,2,2,2,2,2,2,2,2,2,2,2,2,2,2,2,2,2,2,2,2,2,2,2,2,2,2,2,2,2,2,2,2,2,2,2,2,2,2,2,2,2,2,2,2,2,2,2,2,2,2]",1,24.8135,4,0,0,0,0,1,participnt2,4,SV_6SxWlNLsoRj8nqK,304B,2022-06-27_14h52.23.998,implicit_time,2021.1.4,Linux x86_64,59.95563283
cursorjump,67.5,0,0,10,NA,0,NA,0,0,0.5,FALSE,practice,0,"[0.014583,0.014583,0.014583,0.014583,0.014583,0.014583,0.014583,0.014583,0.014583,0.014583,0.014583,0.014583,0.014583,0.014583,0.014583,0.014583,0.014583,0.014583,0.014583,0.014583,0.014583,0.014583,0.014583,0.014583,0.016667,0.020833,0.041667,0.085417,0.1125,0.166667,0.191667,0.233333,0.270833,0.314583,0.3375,0.389583,0.414583,0.4625,0.491667,0.497917,0.495833,0.495833,0.495833,0.495833,0.497917,0.495833,0.495833,0.495833,0.495833,0.495833,0.489583,0.483333,0.458333,0.425,0.408333,0.372917,0.333333,0.310417,0.264583,0.220833,0.202083,0.170833,0.141667,0.129167,0.10625,0.091667,0.0875,0.083333,0.08125,0.08125,0.08125,0.08125,0.08125,0.08125,0.079167,0.079167,0.079167,0.077083,0.077083,0.077083,0.077083,0.075,0.072917,0.06875,0.066667,0.058333,0.052083,0.05,0.045833,0.041667,0.041667,0.0375,0.035417,0.033333,0.029167,0.022917]","[0.023111,0.023111,0.023111,0.023111,0.023111,0.023111,0.023111,0.023111,0.023111,0.023111,0.023111,0.023111,0.023111,0.023111,0.023111,0.023111,0.023111,0.023111,0.023111,0.023111,0.023111,0.023111,0.023111,0.023111,0.023111,0.035556,0.066667,0.125778,0.166222,0.250222,0.293778,0.387111,0.483556,0.583111,0.632889,0.732444,0.779111,0.856889,0.900444,0.909778,0.909778,0.906667,0.906667,0.903556,0.903556,0.903556,0.903556,0.903556,0.903556,0.903556,0.897333,0.888,0.850667,0.791556,0.760444,0.692,0.611111,0.567556,0.483556,0.412,0.380889,0.324889,0.268889,0.244,0.191111,0.141333,0.122667,0.088444,0.072889,0.072889,0.072889,0.072889,0.072889,0.076,0.079111,0.079111,0.082222,0.082222,0.082222,0.085333,0.085333,0.085333,0.088444,0.088444,0.088444,0.085333,0.079111,0.072889,0.066667,0.060444,0.057333,0.051111,0.048,0.044889,0.038667,0.029333]","[0.0002,0.016,0.033,0.0497,0.066,0.0826,0.0995,0.1164,0.1333,0.1498,0.1661,0.1832,0.1998,0.2164,0.2331,0.2498,0.2663,0.2835,0.3001,0.3167,0.3334,0.35,0.3668,0.3834,0.3998,0.4165,0.4336,0.4499,0.4665,0.4836,0.4999,0.517,0.5334,0.5498,0.5666,0.5831,0.6002,0.6172,0.6337,0.6504,0.6664,0.6838,0.7002,0.7172,0.7339,0.7506,0.7664,0.7839,0.8005,0.818,0.8337,0.85,0.8671,0.8833,0.9006,0.9165,0.9334,0.9499,0.9669,0.9843,1.0001,1.0171,1.0335,1.05,1.0667,1.0834,1.1007,1.1167,1.1334,1.1501,1.1667,1.184,1.2002,1.2168,1.234,1.25,1.2672,1.2836,1.3002,1.3169,1.3337,1.3503,1.3669,1.3836,1.4003,1.417,1.4337,1.4505,1.467,1.4838,1.5005,1.5171,1.5339,1.5505,1.5672,1.5838]","[1,1,1,1,1,1,1,1,1,1,1,1,1,1,1,1,1,1,1,1,1,1,1,1,1,1,1,1,1,1,1,1,1,1,1,1,1,2,2,2,2,2,2,2,2,2,2,2,2,2,2,2,2,2,2,2,2,2,2,2,2,2,2,2,2,2,2,2,2,2,2,2,2,2,2,2,2,2,2,2,2,2,2,2,2,2,2,2,2,2,2,2,2,2,2,2]",1,26.9148,4,1,0,1,0,1,participnt2,4,SV_6SxWlNLsoRj8nqK,304B,2022-06-27_14h52.23.998,implicit_time,2021.1.4,Linux x86_64,59.95563283
cursorjump,45,0,0.5,10,NA,0,NA,0,1,0.5,FALSE,practice,1,"[0.014583,0.014583,0.014583,0.014583,0.014583,0.014583,0.014583,0.014583,0.014583,0.014583,0.014583,0.014583,0.014583,0.014583,0.014583,0.014583,0.014583,0.014583,0.014583,0.014583,0.014583,0.014583,0.01875,0.025,0.058333,0.1125,0.166667,0.1875,0.227083,0.247917,0.29375,0.35,0.404167,0.429167,0.477083,0.508333,0.577083,0.65625,0.7375,0.7625,0.779167,0.779167,0.785417,0.791667,0.797917,0.797917,0.8,0.8,0.8,0.8,0.797917,0.779167,0.73125,0.7,0.627083,0.54375,0.497917,0.395833,0.295833,0.210417,0.172917,0.1125,0.0875,0.054167,0.039583,0.035417,0.033333,0.03125,0.03125,0.033333,0.035417,0.0375,0.039583,0.039583,0.0375,0.03125,0.027083,0.022917,0.01875,0.014583,0.014583,0.014583,0.014583,0.016667,0.016667,0.016667]","[0.001333,0.001333,0.001333,0.001333,0.001333,0.001333,0.001333,0.001333,0.001333,0.001333,0.001333,0.001333,0.001333,0.001333,0.001333,0.001333,0.001333,0.001333,0.001333,0.004444,0.004444,0.004444,0.007556,0.013778,0.048,0.094667,0.141333,0.163111,0.206667,0.228444,0.284444,0.346667,0.408889,0.436889,0.486667,0.511556,0.567556,0.626667,0.682667,0.698222,0.710667,0.710667,0.704444,0.695111,0.685778,0.685778,0.685778,0.685778,0.685778,0.688889,0.692,0.688889,0.667111,0.648444,0.604889,0.548889,0.514667,0.446222,0.377778,0.318667,0.293778,0.250222,0.231556,0.203556,0.184889,0.181778,0.178667,0.175556,0.178667,0.178667,0.175556,0.175556,0.169333,0.156889,0.150667,0.138222,0.125778,0.122667,0.104,0.085333,0.076,0.060444,0.051111,0.041778,0.038667,0.035556]","[0.0002,0.0165,0.0332,0.0495,0.0667,0.0835,0.1001,0.1169,0.1336,0.15,0.1668,0.1836,0.2002,0.217,0.2336,0.2499,0.267,0.2838,0.3003,0.317,0.3337,0.3504,0.3671,0.3833,0.4,0.4168,0.4337,0.4503,0.4671,0.4837,0.5002,0.5167,0.5336,0.5502,0.5668,0.5835,0.6001,0.6169,0.6337,0.6503,0.6671,0.6836,0.7009,0.717,0.7341,0.7504,0.7669,0.7838,0.8004,0.8172,0.834,0.8503,0.8673,0.8841,0.9005,0.9174,0.9342,0.9505,0.9676,0.984,1.0006,1.0176,1.0342,1.0505,1.0677,1.0839,1.1008,1.1172,1.1337,1.151,1.1671,1.1838,1.2005,1.2176,1.2343,1.2505,1.2679,1.2837,1.3007,1.3177,1.3344,1.3505,1.3677,1.384,1.4007,1.4173]","[1,1,1,1,1,1,1,1,1,1,1,1,1,1,1,1,1,1,1,1,1,1,1,1,1,1,1,1,1,1,1,1,1,1,1,1,1,1,2,2,2,2,2,2,2,2,2,2,2,2,2,2,2,2,2,2,2,2,2,2,2,2,2,2,2,2,2,2,2,2,2,2,2,2,2,2,2,2,2,2,2,2,2,2,2,2]",2,28.8493,4,2,0,2,0,1,participnt2,4,SV_6SxWlNLsoRj8nqK,304B,2022-06-27_14h52.23.998,implicit_time,2021.1.4,Linux x86_64,59.95563283
cursorjump,52.5,0,0,10,NA,0,NA,0,0,0.5,FALSE,practice,0,"[-0.002083,-0.002083,-0.002083,-0.002083,-0.002083,-0.002083,-0.002083,-0.002083,-0.002083,-0.002083,-0.002083,-0.002083,-0.002083,-0.002083,-0.002083,-0.002083,-0.002083,-0.002083,-0.002083,-0.002083,-0.002083,-0.002083,-0.002083,0.014583,0.033333,0.089583,0.158333,0.191667,0.260417,0.34375,0.391667,0.491667,0.585417,0.627083,0.695833,0.727083,0.729167,0.727083,0.727083,0.727083,0.727083,0.727083,0.727083,0.720833,0.683333,0.652083,0.570833,0.485417,0.439583,0.345833,0.247917,0.2,0.120833,0.060417,0.033333,-0.016667,-0.058333,-0.075,-0.095833,-0.108333,-0.1125,-0.120833,-0.122917,-0.122917,-0.122917,-0.122917,-0.122917,-0.122917,-0.122917,-0.122917,-0.122917,-0.122917,-0.122917,-0.116667,-0.104167,-0.095833,-0.08125,-0.075,-0.066667,-0.060417,-0.05625,-0.054167,-0.052083,-0.052083,-0.047917,-0.04375,-0.0375]","[0.010667,0.010667,0.010667,0.010667,0.010667,0.010667,0.010667,0.010667,0.010667,0.010667,0.010667,0.010667,0.010667,0.010667,0.010667,0.010667,0.010667,0.010667,0.010667,0.010667,0.010667,0.010667,0.010667,0.029333,0.051111,0.113333,0.188,0.225333,0.306222,0.399556,0.452444,0.555111,0.642222,0.679556,0.735556,0.757333,0.757333,0.757333,0.757333,0.757333,0.754222,0.754222,0.754222,0.748,0.72,0.695111,0.629778,0.545778,0.502222,0.412,0.324889,0.287556,0.216,0.16,0.135111,0.079111,0.035556,0.02,0.004444,-0.001778,-0.004889,-0.004889,-0.004889,-0.004889,-0.004889,-0.004889,-0.004889,-0.004889,-0.004889,-0.004889,-0.004889,-0.004889,-0.004889,-0.001778,-0.001778,-0.001778,0.001333,0.004444,0.004444,0.007556,0.010667,0.010667,0.010667,0.010667,0.010667,0.010667,0.010667]","[0.0002,0.0163,0.0331,0.0498,0.0667,0.0831,0.1,0.1166,0.1333,0.1499,0.1665,0.1833,0.2001,0.2167,0.2334,0.2499,0.2665,0.2835,0.2999,0.3169,0.3336,0.3499,0.3672,0.3836,0.4003,0.417,0.4338,0.4505,0.4668,0.4834,0.5,0.517,0.5334,0.5503,0.5673,0.584,0.6007,0.6171,0.634,0.6501,0.667,0.6835,0.7002,0.7168,0.7335,0.7503,0.7675,0.7836,0.8008,0.8175,0.834,0.8506,0.8676,0.8839,0.901,0.9177,0.9345,0.9503,0.9675,0.9837,1.0009,1.0175,1.0338,1.0503,1.0676,1.0845,1.1011,1.1175,1.1343,1.1512,1.1678,1.1838,1.2004,1.2175,1.2341,1.2506,1.2673,1.2841,1.3009,1.3175,1.3343,1.3509,1.3673,1.3838,1.4005,1.4175,1.4343]","[1,1,1,1,1,1,1,1,1,1,1,1,1,1,1,1,1,1,1,1,1,1,1,1,1,1,1,1,1,1,1,1,1,1,2,2,2,2,2,2,2,2,2,2,2,2,2,2,2,2,2,2,2,2,2,2,2,2,2,2,2,2,2,2,2,2,2,2,2,2,2,2,2,2,2,2,2,2,2,2,2,2,2,2,2,2,2]",2,30.8012,4,3,0,3,0,1,participnt2,4,SV_6SxWlNLsoRj8nqK,304B,2022-06-27_14h52.23.998,implicit_time,2021.1.4,Linux x86_64,59.95563283
cursorjump,105,0,0.5,10,NA,0,NA,0,1,0.5,FALSE,practice,1,"[-0.004167,-0.004167,-0.004167,-0.004167,-0.004167,-0.004167,-0.004167,-0.004167,-0.004167,-0.004167,-0.004167,-0.004167,-0.004167,-0.004167,-0.004167,-0.004167,-0.004167,-0.004167,-0.004167,-0.004167,-0.004167,-0.004167,-0.004167,-0.004167,-0.004167,-0.00625,-0.010417,-0.01875,-0.029167,-0.0375,-0.052083,-0.06875,-0.077083,-0.089583,-0.1,-0.104167,-0.110417,-0.114583,-0.116667,-0.122917,-0.13125,-0.135417,-0.145833,-0.158333,-0.1625,-0.175,-0.185417,-0.189583,-0.197917,-0.202083,-0.204167,-0.202083,-0.202083,-0.202083,-0.202083,-0.19375,-0.185417,-0.1625,-0.141667,-0.13125,-0.108333,-0.08125,-0.054167,-0.041667,-0.016667,-0.002083,0.020833,0.035417,0.047917,0.052083,0.060417,0.064583,0.066667,0.06875,0.06875,0.06875,0.06875,0.06875,0.06875,0.06875,0.06875,0.066667,0.0625,0.060417,0.052083,0.045833,0.04375,0.041667,0.0375,0.035417,0.033333,0.03125,0.029167,0.027083,0.025,0.022917,0.022917,0.022917,0.022917,0.022917]","[0.007556,0.007556,0.007556,0.007556,0.007556,0.007556,0.007556,0.007556,0.007556,0.007556,0.007556,0.007556,0.007556,0.007556,0.007556,0.007556,0.007556,0.007556,0.007556,0.007556,0.007556,0.007556,0.007556,0.007556,0.010667,0.013778,0.023111,0.048,0.088444,0.116444,0.181778,0.253333,0.293778,0.371556,0.449333,0.483556,0.545778,0.595556,0.617333,0.660889,0.704444,0.723111,0.763556,0.804,0.825778,0.872444,0.922222,0.947111,0.987556,1.006222,1.009333,1.006222,1.006222,1.006222,1.006222,1.006222,1,0.968889,0.906667,0.872444,0.791556,0.707556,0.620444,0.573778,0.486667,0.446222,0.374667,0.312444,0.256444,0.234667,0.203556,0.191111,0.178667,0.169333,0.169333,0.169333,0.169333,0.169333,0.169333,0.169333,0.16,0.156889,0.141333,0.132,0.119556,0.110222,0.104,0.100889,0.091556,0.088444,0.082222,0.072889,0.069778,0.057333,0.048,0.044889,0.038667,0.038667,0.035556,0.032444]","[0.0002,0.0165,0.0333,0.0499,0.067,0.0834,0.1001,0.1168,0.1335,0.1502,0.1668,0.1835,0.2001,0.2169,0.2334,0.2504,0.2669,0.2837,0.3004,0.317,0.3337,0.3504,0.3669,0.3837,0.4005,0.4172,0.4338,0.4504,0.4671,0.4839,0.5006,0.5173,0.534,0.5506,0.5672,0.584,0.6008,0.6174,0.635,0.6508,0.6672,0.6839,0.7009,0.7173,0.7341,0.7508,0.7676,0.784,0.8009,0.8175,0.834,0.8509,0.8676,0.8843,0.9011,0.9177,0.9342,0.951,0.9678,0.984,1.001,1.0178,1.0345,1.0512,1.0678,1.0843,1.101,1.1176,1.1345,1.1512,1.1676,1.1844,1.2012,1.2179,1.2344,1.251,1.2676,1.2847,1.3011,1.3177,1.3347,1.3515,1.3681,1.3845,1.4014,1.4181,1.4346,1.4516,1.4679,1.4848,1.5015,1.5181,1.5347,1.5518,1.5683,1.5848,1.602,1.618,1.6348,1.6518]","[1,1,1,1,1,1,1,1,1,1,1,1,1,1,1,1,1,1,1,1,1,1,1,1,1,1,1,1,1,1,1,1,1,1,1,1,1,1,1,1,1,1,1,1,1,1,1,2,2,2,2,2,2,2,2,2,2,2,2,2,2,2,2,2,2,2,2,2,2,2,2,2,2,2,2,2,2,2,2,2,2,2,2,2,2,2,2,2,2,2,2,2,2,2,2,2,2,2,2,2]",3,32.97,4,4,0,4,0,1,participnt2,4,SV_6SxWlNLsoRj8nqK,304B,2022-06-27_14h52.23.998,implicit_time,2021.1.4,Linux x86_64,59.95563283
cursorjump,112.5,0,0,10,NA,0,NA,0,0,0.5,FALSE,practice,0,"[0.020833,0.020833,0.020833,0.020833,0.020833,0.020833,0.020833,0.020833,0.020833,0.020833,0.020833,0.020833,0.020833,0.020833,0.020833,0.020833,0.020833,0.020833,0.020833,0.01875,0.008333,-0.008333,-0.020833,-0.05,-0.08125,-0.097917,-0.129167,-0.15625,-0.166667,-0.18125,-0.2,-0.210417,-0.235417,-0.264583,-0.277083,-0.304167,-0.316667,-0.34375,-0.36875,-0.3875,-0.395833,-0.414583,-0.41875,-0.422917,-0.425,-0.427083,-0.427083,-0.429167,-0.429167,-0.429167,-0.427083,-0.420833,-0.410417,-0.383333,-0.364583,-0.31875,-0.266667,-0.2125,-0.1875,-0.135417,-0.110417,-0.064583,-0.020833,0.016667,0.033333,0.064583,0.077083,0.097917,0.114583,0.125,0.129167,0.13125,0.13125,0.133333,0.133333,0.13125,0.13125,0.129167,0.127083,0.122917,0.11875,0.1125,0.1125,0.108333,0.10625,0.1,0.095833,0.089583,0.0875,0.08125,0.077083,0.070833,0.064583,0.060417,0.058333,0.054167,0.052083,0.052083,0.052083,0.052083,0.052083,0.052083,0.052083,0.052083,0.052083,0.05,0.045833,0.039583]","[0.032444,0.032444,0.032444,0.032444,0.032444,0.032444,0.032444,0.032444,0.032444,0.032444,0.032444,0.032444,0.032444,0.032444,0.032444,0.032444,0.032444,0.032444,0.032444,0.032444,0.035556,0.054222,0.069778,0.116444,0.175556,0.209778,0.284444,0.365333,0.408889,0.489778,0.564444,0.595556,0.651556,0.698222,0.72,0.763556,0.785333,0.825778,0.866222,0.903556,0.919111,0.944,0.950222,0.953333,0.950222,0.947111,0.947111,0.947111,0.947111,0.947111,0.947111,0.944,0.937778,0.909778,0.888,0.832,0.760444,0.682667,0.642222,0.561333,0.520889,0.446222,0.377778,0.321778,0.296889,0.250222,0.231556,0.197333,0.169333,0.153778,0.147556,0.144444,0.144444,0.141333,0.141333,0.141333,0.144444,0.147556,0.147556,0.153778,0.156889,0.16,0.16,0.153778,0.150667,0.132,0.107111,0.082222,0.069778,0.048,0.041778,0.029333,0.02,0.013778,0.007556,0.001333,-0.001778,-0.004889,-0.004889,-0.004889,-0.004889,-0.004889,-0.004889,-0.004889,-0.004889,-0.004889,-0.004889,-0.004889]","[0.0003,0.0167,0.0331,0.05,0.0663,0.0831,0.0996,0.1168,0.1334,0.1497,0.1667,0.1835,0.2003,0.2165,0.2336,0.2497,0.2669,0.2833,0.3002,0.317,0.3335,0.3501,0.3671,0.3837,0.4002,0.417,0.4338,0.4505,0.4672,0.4839,0.5005,0.5169,0.5339,0.5506,0.5689,0.5842,0.601,0.6173,0.634,0.6506,0.6673,0.6842,0.7007,0.7177,0.7341,0.751,0.7676,0.7839,0.8007,0.8174,0.8339,0.8508,0.8677,0.8887,0.9017,0.9185,0.9353,0.9516,0.9676,0.9845,1.0012,1.0179,1.0345,1.0512,1.0678,1.0846,1.1009,1.1174,1.1345,1.1508,1.1679,1.184,1.2002,1.2174,1.2345,1.2514,1.2678,1.2842,1.3013,1.3172,1.3347,1.3511,1.3679,1.3838,1.4019,1.4181,1.4359,1.4524,1.4683,1.4847,1.5013,1.5177,1.5343,1.5512,1.5678,1.5845,1.601,1.6177,1.6344,1.6503,1.6679,1.6841,1.7007,1.7175,1.7344,1.751,1.7679,1.7848]","[1,1,1,1,1,1,1,1,1,1,1,1,1,1,1,1,1,1,1,1,1,1,1,1,1,1,1,1,1,1,1,1,1,1,1,1,1,1,1,2,2,2,2,2,2,2,2,2,2,2,2,2,2,2,2,2,2,2,2,2,2,2,2,2,2,2,2,2,2,2,2,2,2,2,2,2,2,2,2,2,2,2,2,2,2,2,2,2,2,2,2,2,2,2,2,2,2,2,2,2,2,2,2,2,2,2,2,2]",3,35.272,4,5,0,5,0,1,participnt2,4,SV_6SxWlNLsoRj8nqK,304B,2022-06-27_14h52.23.998,implicit_time,2021.1.4,Linux x86_64,59.95563283
cursorjump,135,0,0.5,10,NA,0,NA,0,1,0.5,FALSE,practice,1,"[0.027083,0.027083,0.027083,0.027083,0.027083,0.027083,0.027083,0.027083,0.027083,0.027083,0.027083,0.027083,0.027083,0.027083,0.027083,0.027083,0.027083,0.027083,0.027083,0.027083,0.027083,0.027083,0.027083,0.027083,0.027083,0.027083,0.01875,0.0125,-0.004167,-0.027083,-0.054167,-0.070833,-0.104167,-0.122917,-0.16875,-0.195833,-0.254167,-0.3125,-0.372917,-0.404167,-0.472917,-0.508333,-0.577083,-0.647917,-0.716667,-0.75,-0.785417,-0.791667,-0.791667,-0.791667,-0.791667,-0.791667,-0.791667,-0.791667,-0.789583,-0.777083,-0.7375,-0.710417,-0.645833,-0.608333,-0.529167,-0.45,-0.372917,-0.335417,-0.264583,-0.23125,-0.170833,-0.116667,-0.070833,-0.05,-0.0125,0.004167,0.029167,0.04375,0.054167,0.05625,0.058333,0.058333,0.058333,0.058333,0.058333,0.058333,0.058333,0.058333,0.05625,0.052083,0.05,0.047917,0.045833,0.045833,0.0375,0.029167,0.01875,0.016667,0.010417]","[-0.008,-0.008,-0.008,-0.008,-0.008,-0.008,-0.008,-0.008,-0.008,-0.008,-0.008,-0.008,-0.008,-0.008,-0.008,-0.008,-0.008,-0.008,-0.008,-0.008,-0.008,-0.008,-0.008,-0.008,-0.008,-0.008,-0.001778,0.001333,0.016889,0.035556,0.063556,0.079111,0.119556,0.141333,0.191111,0.222222,0.281333,0.343556,0.405778,0.436889,0.492889,0.524,0.58,0.632889,0.688889,0.710667,0.738667,0.741778,0.735556,0.732444,0.732444,0.732444,0.729333,0.729333,0.729333,0.716889,0.692,0.676444,0.636,0.611111,0.564444,0.511556,0.458667,0.430667,0.371556,0.343556,0.290667,0.247111,0.209778,0.191111,0.163111,0.150667,0.132,0.119556,0.113333,0.110222,0.110222,0.110222,0.110222,0.110222,0.110222,0.107111,0.100889,0.091556,0.085333,0.079111,0.072889,0.072889,0.069778,0.066667,0.060444,0.051111,0.044889,0.041778,0.038667]","[0.0007,0.0166,0.033,0.05,0.0666,0.0832,0.0996,0.116,0.1333,0.1494,0.1662,0.1832,0.2,0.2167,0.233,0.2497,0.2667,0.2836,0.2999,0.3167,0.3329,0.3498,0.3664,0.3836,0.3999,0.417,0.4337,0.4501,0.4669,0.4837,0.5005,0.517,0.5335,0.5502,0.5672,0.5839,0.6006,0.6172,0.6337,0.6501,0.6669,0.6841,0.7007,0.717,0.7336,0.7505,0.7673,0.7836,0.8007,0.817,0.8338,0.8505,0.867,0.8837,0.9007,0.9173,0.9345,0.9508,0.9672,0.9839,1.001,1.0175,1.034,1.0504,1.0673,1.0839,1.1006,1.1174,1.1341,1.151,1.1675,1.1838,1.2009,1.2176,1.2341,1.2508,1.2673,1.284,1.3006,1.3174,1.3341,1.3511,1.3673,1.3847,1.4011,1.4178,1.4342,1.4511,1.4676,1.484,1.5017,1.5177,1.5347,1.5514,1.5672]","[1,1,1,1,1,1,1,1,1,1,1,1,1,1,1,1,1,1,1,1,1,1,1,1,1,1,1,1,1,1,1,1,1,1,1,1,1,1,1,1,1,1,1,1,2,2,2,2,2,2,2,2,2,2,2,2,2,2,2,2,2,2,2,2,2,2,2,2,2,2,2,2,2,2,2,2,2,2,2,2,2,2,2,2,2,2,2,2,2,2,2,2,2,2,2]",4,37.3564,4,6,0,6,0,1,participnt2,4,SV_6SxWlNLsoRj8nqK,304B,2022-06-27_14h52.23.998,implicit_time,2021.1.4,Linux x86_64,59.95563283
cursorjump,127.5,0,0,10,NA,0,NA,0,0,0.5,FALSE,practice,0,"[0.00625,0.00625,0.00625,0.00625,0.00625,0.00625,0.00625,0.00625,0.00625,0.00625,0.00625,0.00625,0.00625,0.00625,0.00625,0.00625,0.00625,0.00625,0.00625,0.00625,0.002083,-0.002083,-0.016667,-0.039583,-0.06875,-0.0875,-0.127083,-0.152083,-0.2125,-0.2875,-0.36875,-0.410417,-0.495833,-0.539583,-0.625,-0.708333,-0.78125,-0.802083,-0.8125,-0.8125,-0.8125,-0.816667,-0.81875,-0.820833,-0.825,-0.829167,-0.820833,-0.779167,-0.747917,-0.670833,-0.58125,-0.5375,-0.452083,-0.372917,-0.3375,-0.26875,-0.20625,-0.177083,-0.127083,-0.08125,-0.0625,-0.029167,-0.008333,0.002083,0.014583,0.022917,0.025,0.029167,0.029167,0.029167,0.029167,0.029167,0.029167,0.029167,0.029167,0.029167,0.029167,0.029167,0.029167,0.029167,0.029167,0.029167,0.027083,0.025]","[0.038667,0.038667,0.038667,0.038667,0.038667,0.038667,0.038667,0.038667,0.038667,0.038667,0.038667,0.038667,0.038667,0.038667,0.038667,0.038667,0.038667,0.038667,0.038667,0.038667,0.041778,0.044889,0.060444,0.088444,0.128889,0.153778,0.212889,0.244,0.309333,0.368444,0.421333,0.446222,0.499111,0.527111,0.586222,0.648444,0.701333,0.716889,0.723111,0.72,0.716889,0.713778,0.707556,0.704444,0.701333,0.695111,0.679556,0.648444,0.632889,0.589333,0.539556,0.508444,0.449333,0.390222,0.362222,0.306222,0.253333,0.231556,0.184889,0.144444,0.125778,0.094667,0.076,0.069778,0.060444,0.057333,0.057333,0.054222,0.054222,0.054222,0.054222,0.054222,0.054222,0.054222,0.054222,0.054222,0.054222,0.054222,0.054222,0.054222,0.051111,0.048,0.038667,0.032444]","[0.0007,0.0164,0.0325,0.049,0.0662,0.0824,0.0991,0.1163,0.1329,0.1493,0.166,0.1827,0.1993,0.2159,0.2332,0.2498,0.2668,0.2831,0.2999,0.3165,0.3332,0.35,0.3667,0.3834,0.4001,0.4167,0.4335,0.4501,0.4668,0.4834,0.5001,0.5167,0.5335,0.5503,0.5669,0.5833,0.6003,0.617,0.6337,0.6503,0.667,0.6837,0.7002,0.717,0.7339,0.7506,0.7673,0.7838,0.8006,0.8172,0.834,0.8507,0.8672,0.8839,0.9007,0.9172,0.934,0.9507,0.9671,0.9836,1.0006,1.0175,1.0341,1.0508,1.0674,1.0836,1.101,1.1176,1.1335,1.1504,1.1672,1.1835,1.2003,1.2169,1.2342,1.2504,1.267,1.2836,1.2999,1.3173,1.3337,1.3506,1.3677,1.3838]","[1,1,1,1,1,1,1,1,1,1,1,1,1,1,1,1,1,1,1,1,1,1,1,1,1,1,1,1,1,1,1,1,1,1,1,2,2,2,2,2,2,2,2,2,2,2,2,2,2,2,2,2,2,2,2,2,2,2,2,2,2,2,2,2,2,2,2,2,2,2,2,2,2,2,2,2,2,2,2,2,2,2,2,2]",4,39.2583,4,7,0,7,0,1,participnt2,4,SV_6SxWlNLsoRj8nqK,304B,2022-06-27_14h52.23.998,implicit_time,2021.1.4,Linux x86_64,59.95563283
cursorjump,135,0,0.5,10,NA,0,NA,0,1,0.5,FALSE,practice,1,"[-0.00625,-0.00625,-0.00625,-0.00625,-0.00625,-0.00625,-0.00625,-0.00625,-0.00625,-0.00625,-0.00625,-0.00625,-0.00625,-0.00625,-0.00625,-0.00625,-0.00625,-0.00625,-0.00625,-0.00625,-0.008333,-0.016667,-0.035417,-0.060417,-0.077083,-0.11875,-0.141667,-0.19375,-0.252083,-0.316667,-0.347917,-0.416667,-0.45,-0.522917,-0.595833,-0.66875,-0.704167,-0.76875,-0.797917,-0.829167,-0.83125,-0.829167,-0.827083,-0.827083,-0.827083,-0.827083,-0.827083,-0.816667,-0.802083,-0.760417,-0.733333,-0.672917,-0.602083,-0.525,-0.4875,-0.4125,-0.341667,-0.310417,-0.25,-0.2,-0.175,-0.135417,-0.102083,-0.0875,-0.060417,-0.0375,-0.029167,-0.016667,-0.008333,-0.008333,-0.008333,-0.00625,-0.00625,-0.002083,0.002083,0.004167,0.008333,0.008333,0.010417,0.010417,0.010417,0.0125,0.0125,0.014583,0.016667,0.016667,0.016667,0.016667]","[0.010667,0.010667,0.010667,0.010667,0.010667,0.010667,0.010667,0.010667,0.010667,0.010667,0.010667,0.010667,0.010667,0.010667,0.010667,0.010667,0.010667,0.010667,0.010667,0.010667,0.013778,0.023111,0.044889,0.072889,0.094667,0.138222,0.163111,0.219111,0.278222,0.337333,0.368444,0.427556,0.455556,0.508444,0.555111,0.595556,0.617333,0.660889,0.682667,0.707556,0.710667,0.707556,0.704444,0.704444,0.704444,0.704444,0.701333,0.685778,0.673333,0.642222,0.623556,0.583111,0.533333,0.474222,0.446222,0.387111,0.331111,0.303111,0.247111,0.200444,0.178667,0.141333,0.113333,0.100889,0.082222,0.066667,0.063556,0.057333,0.054222,0.054222,0.054222,0.054222,0.054222,0.051111,0.048,0.048,0.044889,0.044889,0.044889,0.044889,0.044889,0.044889,0.041778,0.041778,0.038667,0.038667,0.038667,0.035556]","[0.0006,0.0168,0.0331,0.0498,0.0666,0.0833,0.0996,0.1168,0.1335,0.1497,0.1668,0.183,0.2003,0.2165,0.2331,0.2502,0.2666,0.2837,0.3004,0.3171,0.3338,0.3504,0.3672,0.3837,0.4005,0.4172,0.4338,0.4505,0.4672,0.484,0.5007,0.5174,0.5339,0.5506,0.5674,0.584,0.6019,0.6176,0.6343,0.6511,0.6674,0.6842,0.7008,0.7175,0.7342,0.7508,0.7676,0.7843,0.8011,0.8176,0.8347,0.8509,0.8675,0.8843,0.9012,0.9178,0.9344,0.9511,0.9678,0.9845,1.0012,1.0178,1.0345,1.0507,1.0677,1.0846,1.1013,1.1176,1.1344,1.1513,1.168,1.1847,1.2009,1.218,1.2347,1.2511,1.2681,1.2844,1.3015,1.3182,1.3347,1.3517,1.3678,1.3843,1.4014,1.4182,1.4348,1.4514]","[1,1,1,1,1,1,1,1,1,1,1,1,1,1,1,1,1,1,1,1,1,1,1,1,1,1,1,1,1,1,1,1,1,1,1,1,1,2,2,2,2,2,2,2,2,2,2,2,2,2,2,2,2,2,2,2,2,2,2,2,2,2,2,2,2,2,2,2,2,2,2,2,2,2,2,2,2,2,2,2,2,2,2,2,2,2,2,2]",5,41.2263,4,8,0,8,0,1,participnt2,4,SV_6SxWlNLsoRj8nqK,304B,2022-06-27_14h52.23.998,implicit_time,2021.1.4,Linux x86_64,59.95563283
cursorjump,142.5,0,0,10,NA,0,NA,0,0,0.5,FALSE,practice,0,"[-0.004167,-0.004167,-0.004167,-0.004167,-0.004167,-0.004167,-0.004167,-0.004167,-0.004167,-0.004167,-0.004167,-0.004167,-0.004167,-0.004167,-0.004167,-0.004167,-0.004167,-0.004167,-0.004167,-0.004167,-0.008333,-0.020833,-0.039583,-0.052083,-0.083333,-0.1,-0.141667,-0.191667,-0.222917,-0.295833,-0.375,-0.416667,-0.497917,-0.579167,-0.620833,-0.708333,-0.795833,-0.827083,-0.85,-0.85,-0.847917,-0.847917,-0.847917,-0.847917,-0.85,-0.85625,-0.854167,-0.833333,-0.7875,-0.758333,-0.689583,-0.614583,-0.575,-0.497917,-0.420833,-0.383333,-0.316667,-0.25625,-0.229167,-0.179167,-0.133333,-0.1125,-0.077083,-0.047917,-0.0375,-0.01875,-0.008333,-0.00625,-0.002083,0,0,0,-0.002083,-0.004167,-0.008333,-0.010417,-0.010417,-0.010417,-0.010417,-0.010417,-0.00625,-0.002083,0.002083,0.00625,0.0125,0.014583,0.01875,0.020833]","[0.016889,0.016889,0.016889,0.016889,0.016889,0.016889,0.016889,0.016889,0.016889,0.016889,0.016889,0.016889,0.016889,0.016889,0.016889,0.016889,0.016889,0.016889,0.016889,0.016889,0.02,0.029333,0.044889,0.054222,0.085333,0.107111,0.153778,0.212889,0.247111,0.315556,0.387111,0.421333,0.489778,0.548889,0.576889,0.623556,0.664,0.679556,0.688889,0.688889,0.685778,0.682667,0.679556,0.679556,0.676444,0.664,0.657778,0.632889,0.604889,0.589333,0.558222,0.517778,0.496,0.452444,0.408889,0.387111,0.346667,0.309333,0.290667,0.259556,0.228444,0.216,0.184889,0.16,0.150667,0.132,0.122667,0.116444,0.110222,0.110222,0.110222,0.110222,0.110222,0.110222,0.110222,0.113333,0.113333,0.113333,0.113333,0.113333,0.107111,0.094667,0.088444,0.069778,0.051111,0.048,0.038667,0.032444]","[0.0006,0.0218,0.0402,0.0529,0.0671,0.0833,0.0999,0.1171,0.1339,0.1497,0.1666,0.1833,0.2,0.2165,0.2331,0.2499,0.2664,0.2833,0.3,0.3165,0.3333,0.3502,0.3668,0.3835,0.4002,0.417,0.4336,0.4501,0.4669,0.4836,0.5004,0.5167,0.5348,0.5504,0.5675,0.5836,0.6003,0.6171,0.6338,0.6503,0.667,0.6839,0.7005,0.7171,0.7339,0.7505,0.7674,0.7839,0.8005,0.8173,0.8338,0.8504,0.8673,0.8841,0.9006,0.9176,0.9342,0.9509,0.9677,0.984,1.0008,1.0175,1.0343,1.0506,1.0675,1.0842,1.1008,1.1175,1.134,1.1507,1.1677,1.184,1.201,1.2176,1.2341,1.251,1.2676,1.2842,1.3009,1.3179,1.3345,1.351,1.3679,1.3843,1.4009,1.4178,1.4343,1.4512]","[1,1,1,1,1,1,1,1,1,1,1,1,1,1,1,1,1,1,1,1,1,1,1,1,1,1,1,1,1,1,1,1,1,1,1,1,2,2,2,2,2,2,2,2,2,2,2,2,2,2,2,2,2,2,2,2,2,2,2,2,2,2,2,2,2,2,2,2,2,2,2,2,2,2,2,2,2,2,2,2,2,2,2,2,2,2,2,2]",5,43.1947,4,9,0,9,0,1,participnt2,4,SV_6SxWlNLsoRj8nqK,304B,2022-06-27_14h52.23.998,implicit_time,2021.1.4,Linux x86_64,59.95563283
cursorjump,45,0,0.5,10,NA,0,NA,0,1,0.5,FALSE,practice,1,"[0.022917,0.022917,0.022917,0.022917,0.022917,0.022917,0.022917,0.022917,0.022917,0.022917,0.022917,0.022917,0.022917,0.022917,0.022917,0.022917,0.022917,0.022917,0.022917,0.022917,0.022917,0.022917,0.022917,0.035417,0.052083,0.102083,0.133333,0.197917,0.25625,0.316667,0.354167,0.441667,0.491667,0.5875,0.677083,0.73125,0.741667,0.739583,0.739583,0.741667,0.741667,0.745833,0.74375,0.725,0.702083,0.622917,0.51875,0.4625,0.354167,0.254167,0.1625,0.11875,0.041667,0.008333,-0.04375,-0.083333,-0.097917,-0.122917,-0.135417,-0.139583,-0.141667,-0.14375,-0.14375,-0.14375,-0.141667,-0.139583,-0.133333,-0.127083,-0.125,-0.122917,-0.122917,-0.120833,-0.116667,-0.1125,-0.110417,-0.108333,-0.102083,-0.097917,-0.089583,-0.079167,-0.072917,-0.070833,-0.066667,-0.064583,-0.0625,-0.058333,-0.054167,-0.054167,-0.047917,-0.04375,-0.0375]","[-0.014222,-0.014222,-0.014222,-0.014222,-0.014222,-0.014222,-0.014222,-0.014222,-0.014222,-0.014222,-0.014222,-0.014222,-0.014222,-0.014222,-0.014222,-0.014222,-0.014222,-0.011111,-0.011111,-0.011111,-0.011111,-0.011111,-0.008,0.010667,0.026222,0.079111,0.110222,0.175556,0.247111,0.328,0.371556,0.468,0.517778,0.614222,0.695111,0.741778,0.751111,0.748,0.748,0.744889,0.744889,0.741778,0.738667,0.726222,0.710667,0.664,0.595556,0.555111,0.468,0.384,0.3,0.262667,0.194222,0.166222,0.125778,0.091556,0.079111,0.057333,0.044889,0.044889,0.041778,0.044889,0.044889,0.044889,0.048,0.048,0.051111,0.054222,0.054222,0.054222,0.054222,0.051111,0.048,0.041778,0.032444,0.029333,0.02,0.013778,0.004444,-0.001778,-0.008,-0.008,-0.011111,-0.011111,-0.011111,-0.011111,-0.011111,-0.011111,-0.011111,-0.008,-0.008]","[0.0006,0.0166,0.0327,0.0505,0.0671,0.0833,0.1003,0.117,0.1328,0.1498,0.1659,0.1829,0.1993,0.2165,0.2332,0.2502,0.2663,0.2833,0.3,0.3166,0.3333,0.35,0.3667,0.3834,0.4,0.4165,0.4333,0.4501,0.4668,0.4834,0.5001,0.5166,0.5333,0.5502,0.567,0.5843,0.6002,0.6169,0.6336,0.6503,0.667,0.6837,0.7004,0.7169,0.7336,0.7504,0.7672,0.7838,0.8004,0.8172,0.8341,0.8506,0.8673,0.8839,0.9005,0.9172,0.9397,0.9514,0.968,0.985,1.0012,1.0176,1.0342,1.0509,1.0676,1.0842,1.1011,1.1174,1.1343,1.1511,1.1676,1.1843,1.201,1.2177,1.2344,1.2511,1.2677,1.2843,1.3009,1.3176,1.3344,1.3511,1.3676,1.3845,1.401,1.4177,1.4345,1.4512,1.468,1.4844,1.5012]","[1,1,1,1,1,1,1,1,1,1,1,1,1,1,1,1,1,1,1,1,1,1,1,1,1,1,1,1,1,1,1,1,1,1,2,2,2,2,2,2,2,2,2,2,2,2,2,2,2,2,2,2,2,2,2,2,2,2,2,2,2,2,2,2,2,2,2,2,2,2,2,2,2,2,2,2,2,2,2,2,2,2,2,2,2,2,2,2,2,2,2]",6,45.2126,4,10,0,10,0,1,participnt2,4,SV_6SxWlNLsoRj8nqK,304B,2022-06-27_14h52.23.998,implicit_time,2021.1.4,Linux x86_64,59.95563283
cursorjump,52.5,0,0,10,NA,0,NA,0,0,0.5,FALSE,practice,0,"[-0.029167,-0.029167,-0.029167,-0.029167,-0.029167,-0.029167,-0.029167,-0.029167,-0.029167,-0.029167,-0.029167,-0.029167,-0.029167,-0.029167,-0.029167,-0.029167,-0.029167,-0.029167,-0.029167,-0.029167,-0.025,-0.014583,-0.008333,0.008333,0.020833,0.052083,0.095833,0.152083,0.183333,0.247917,0.283333,0.3625,0.454167,0.55,0.595833,0.654167,0.664583,0.664583,0.664583,0.664583,0.664583,0.66875,0.672917,0.672917,0.666667,0.627083,0.59375,0.510417,0.416667,0.370833,0.275,0.183333,0.139583,0.0625,0,-0.025,-0.064583,-0.09375,-0.10625,-0.127083,-0.139583,-0.145833,-0.152083,-0.154167,-0.15625,-0.15625,-0.15625,-0.15625,-0.15625,-0.15625,-0.154167,-0.147917,-0.139583,-0.135417,-0.125,-0.120833,-0.1125,-0.104167,-0.097917,-0.095833,-0.089583,-0.0875,-0.085417,-0.08125,-0.077083,-0.072917,-0.0625,-0.05625,-0.04375,-0.029167]","[-0.014222,-0.014222,-0.014222,-0.014222,-0.014222,-0.014222,-0.014222,-0.014222,-0.014222,-0.014222,-0.014222,-0.014222,-0.014222,-0.014222,-0.014222,-0.014222,-0.014222,-0.014222,-0.014222,-0.011111,-0.008,0.004444,0.013778,0.035556,0.048,0.082222,0.128889,0.191111,0.225333,0.309333,0.356,0.464889,0.58,0.688889,0.738667,0.797778,0.810222,0.810222,0.807111,0.804,0.804,0.800889,0.800889,0.797778,0.788444,0.757333,0.729333,0.657778,0.567556,0.517778,0.418222,0.321778,0.278222,0.200444,0.138222,0.116444,0.076,0.044889,0.032444,0.013778,0.001333,0.001333,-0.001778,-0.001778,-0.001778,0.001333,0.001333,0.001333,0.001333,0.001333,0.001333,0.004444,0.007556,0.010667,0.016889,0.02,0.023111,0.02,0.02,0.016889,0.010667,0.007556,-0.001778,-0.008,-0.011111,-0.014222,-0.017333,-0.020444,-0.020444,-0.014222]","[0.0005,0.0153,0.033,0.0493,0.0658,0.0825,0.0991,0.1158,0.1327,0.1492,0.1659,0.1826,0.1992,0.2158,0.2322,0.2495,0.2657,0.2825,0.2992,0.3157,0.3325,0.3492,0.3659,0.3826,0.3992,0.416,0.4326,0.4494,0.4662,0.4826,0.4993,0.5161,0.5327,0.5493,0.5661,0.5827,0.5995,0.6172,0.633,0.6497,0.6663,0.683,0.6996,0.7163,0.7328,0.7497,0.7663,0.7829,0.7996,0.8165,0.8329,0.8515,0.8665,0.8829,0.9002,0.9165,0.9332,0.9499,0.9666,0.9832,1,1.0166,1.0332,1.0499,1.0667,1.0834,1.1001,1.1164,1.1334,1.1497,1.1667,1.1835,1.2001,1.2168,1.2335,1.2503,1.2669,1.2836,1.3004,1.3169,1.3336,1.3503,1.3671,1.3837,1.4003,1.4171,1.4337,1.4504,1.468,1.4838]","[1,1,1,1,1,1,1,1,1,1,1,1,1,1,1,1,1,1,1,1,1,1,1,1,1,1,1,1,1,1,1,1,1,1,1,2,2,2,2,2,2,2,2,2,2,2,2,2,2,2,2,2,2,2,2,2,2,2,2,2,2,2,2,2,2,2,2,2,2,2,2,2,2,2,2,2,2,2,2,2,2,2,2,2,2,2,2,2,2,2]",6,47.2142,4,11,0,11,0,1,participnt2,4,SV_6SxWlNLsoRj8nqK,304B,2022-06-27_14h52.23.998,implicit_time,2021.1.4,Linux x86_64,59.95563283
cursorjump,105,0,0.5,10,NA,0,NA,0,1,0.5,FALSE,practice,1,"[-0.004167,-0.002083,0,0.002083,0.008333,0.0125,0.014583,0.016667,0.016667,0.016667,0.016667,0.016667,0.016667,0.016667,0.016667,0.016667,0.016667,0.016667,0.016667,0.016667,0.01875,0.01875,0.01875,0.016667,0.014583,0.004167,-0.0125,-0.022917,-0.045833,-0.06875,-0.08125,-0.1125,-0.147917,-0.183333,-0.202083,-0.239583,-0.258333,-0.297917,-0.335417,-0.35,-0.370833,-0.38125,-0.385417,-0.3875,-0.3875,-0.3875,-0.391667,-0.4,-0.402083,-0.395833,-0.379167,-0.366667,-0.335417,-0.297917,-0.279167,-0.2375,-0.2,-0.164583,-0.147917,-0.11875,-0.104167,-0.08125,-0.0625,-0.054167,-0.039583,-0.029167,-0.025,-0.020833,-0.01875,-0.01875,-0.01875,-0.01875,-0.01875,-0.020833,-0.025,-0.029167,-0.033333,-0.0375,-0.0375,-0.0375,-0.035417,-0.033333,-0.027083,-0.020833]","[-0.020444,-0.020444,-0.020444,-0.017333,-0.014222,-0.014222,-0.011111,-0.011111,-0.008,-0.008,-0.008,-0.008,-0.008,-0.008,-0.008,-0.008,-0.008,-0.008,-0.008,-0.008,-0.008,-0.008,-0.008,-0.004889,-0.001778,0.013778,0.041778,0.063556,0.125778,0.200444,0.237778,0.324889,0.418222,0.517778,0.564444,0.651556,0.688889,0.760444,0.825778,0.86,0.922222,0.959556,0.968889,0.965778,0.962667,0.962667,0.959556,0.956444,0.953333,0.931556,0.881778,0.850667,0.776,0.688889,0.645333,0.548889,0.455556,0.368444,0.328,0.256444,0.225333,0.175556,0.138222,0.125778,0.100889,0.085333,0.079111,0.069778,0.066667,0.066667,0.066667,0.066667,0.069778,0.069778,0.066667,0.066667,0.060444,0.057333,0.054222,0.057333,0.054222,0.051111,0.038667,0.026222]","[0.0005,0.0162,0.0328,0.0497,0.0664,0.0831,0.0998,0.1164,0.1332,0.1498,0.1665,0.1828,0.1998,0.2162,0.2332,0.2496,0.2664,0.2829,0.2997,0.3162,0.3329,0.3498,0.3664,0.3831,0.3996,0.4164,0.4332,0.4501,0.4661,0.483,0.4999,0.5162,0.5331,0.5502,0.5662,0.5831,0.6001,0.617,0.6336,0.6496,0.6665,0.6855,0.7001,0.7167,0.7334,0.7498,0.7668,0.7834,0.8001,0.8168,0.8333,0.8516,0.867,0.8837,0.9002,0.9169,0.9334,0.9504,0.9669,0.9836,1.0003,1.0172,1.0336,1.0502,1.067,1.0838,1.1005,1.1171,1.1337,1.1502,1.1671,1.1841,1.2005,1.2172,1.2338,1.2504,1.2674,1.2838,1.3004,1.3173,1.334,1.3504,1.3673,1.3839]","[1,1,1,1,1,1,1,1,1,1,1,1,1,1,1,1,1,1,1,1,1,1,1,1,1,1,1,1,1,1,1,1,1,1,1,1,1,1,1,1,2,2,2,2,2,2,2,2,2,2,2,2,2,2,2,2,2,2,2,2,2,2,2,2,2,2,2,2,2,2,2,2,2,2,2,2,2,2,2,2,2,2,2,2]",7,49.117,4,12,0,12,0,1,participnt2,4,SV_6SxWlNLsoRj8nqK,304B,2022-06-27_14h52.23.998,implicit_time,2021.1.4,Linux x86_64,59.95563283
cursorjump,97.5,0,0,10,NA,0,NA,0,0,0.5,FALSE,practice,0,"[-0.010417,-0.010417,-0.010417,-0.010417,-0.010417,-0.010417,-0.010417,-0.010417,-0.010417,-0.010417,-0.010417,-0.010417,-0.010417,-0.010417,-0.010417,-0.010417,-0.010417,-0.010417,-0.010417,-0.010417,-0.0125,-0.010417,-0.00625,-0.004167,-0.004167,-0.0125,-0.025,-0.033333,-0.052083,-0.06875,-0.08125,-0.085417,-0.089583,-0.089583,-0.09375,-0.102083,-0.108333,-0.127083,-0.141667,-0.147917,-0.15,-0.145833,-0.133333,-0.114583,-0.095833,-0.089583,-0.072917,-0.064583,-0.047917,-0.033333,-0.022917,-0.01875,-0.010417,-0.008333,-0.00625,-0.004167]","[0.010667,0.010667,0.010667,0.010667,0.010667,0.010667,0.010667,0.010667,0.010667,0.010667,0.010667,0.010667,0.010667,0.010667,0.010667,0.010667,0.010667,0.010667,0.010667,0.013778,0.032444,0.048,0.097778,0.169333,0.209778,0.309333,0.424444,0.486667,0.611111,0.726222,0.822667,0.866222,0.937778,0.968889,1.009333,1.021778,1.021778,1.018667,1.015556,1.015556,1.012444,1.006222,0.968889,0.900444,0.807111,0.754222,0.636,0.576889,0.455556,0.349778,0.256444,0.216,0.141333,0.107111,0.051111,0.013778]","[0.0008,0.0179,0.0339,0.0496,0.0668,0.0828,0.1001,0.1164,0.133,0.1502,0.167,0.1828,0.1999,0.2171,0.2331,0.2503,0.2673,0.2837,0.3006,0.3196,0.335,0.3511,0.3682,0.3847,0.4011,0.4179,0.4347,0.4512,0.4679,0.4845,0.5026,0.5182,0.5346,0.5516,0.5681,0.5848,0.6014,0.6181,0.6347,0.6516,0.6683,0.6848,0.7015,0.7185,0.7348,0.7515,0.7684,0.785,0.8016,0.8182,0.8348,0.8509,0.8679,0.8849,0.901,0.9179]","[1,1,1,1,1,1,1,1,1,1,1,1,1,1,1,1,1,1,1,1,1,1,1,1,1,1,1,1,1,1,1,1,1,2,2,2,2,2,2,2,2,2,2,2,2,2,2,2,2,2,2,2,2,2,2,2]",7,50.5505,4,13,0,13,0,1,participnt2,4,SV_6SxWlNLsoRj8nqK,304B,2022-06-27_14h52.23.998,implicit_time,2021.1.4,Linux x86_64,59.95563283
cursorjump,75,0,0.5,10,NA,0,NA,0,1,0.5,FALSE,practice,1,"[-0.004167,-0.004167,-0.004167,-0.004167,-0.004167,-0.004167,-0.004167,-0.004167,-0.004167,-0.004167,-0.004167,-0.004167,-0.004167,-0.004167,-0.004167,-0.004167,-0.004167,-0.004167,-0.004167,-0.004167,-0.002083,-0.002083,0.002083,0.01875,0.052083,0.095833,0.122917,0.175,0.202083,0.266667,0.35,0.445833,0.479167,0.5125,0.510417,0.510417,0.510417,0.510417,0.510417,0.508333,0.504167,0.475,0.420833,0.358333,0.325,0.2625,0.233333,0.179167,0.13125,0.091667,0.075,0.05,0.039583,0.020833,0.00625,-0.002083,-0.004167,-0.00625,-0.00625,-0.00625,-0.00625,-0.004167,-0.002083,-0.002083,-0.002083,-0.002083,-0.004167,-0.00625]","[0.016889,0.013778,0.013778,0.013778,0.013778,0.013778,0.013778,0.013778,0.013778,0.013778,0.013778,0.013778,0.013778,0.013778,0.013778,0.013778,0.013778,0.013778,0.013778,0.013778,0.016889,0.02,0.029333,0.060444,0.116444,0.194222,0.240889,0.343556,0.402667,0.533333,0.679556,0.816444,0.866222,0.906667,0.903556,0.903556,0.900444,0.900444,0.900444,0.897333,0.894222,0.872444,0.828889,0.766667,0.729333,0.645333,0.598667,0.511556,0.424444,0.349778,0.318667,0.272,0.250222,0.216,0.188,0.169333,0.163111,0.156889,0.153778,0.144444,0.132,0.119556,0.113333,0.104,0.094667,0.076,0.051111,0.029333]","[0.0005,0.0166,0.0324,0.0484,0.0659,0.0822,0.0981,0.1154,0.1315,0.149,0.1655,0.1819,0.199,0.2164,0.2322,0.2486,0.2664,0.2831,0.2999,0.3164,0.3333,0.35,0.3665,0.3834,0.4002,0.4169,0.4332,0.4502,0.4667,0.4835,0.5003,0.5167,0.5334,0.5525,0.5671,0.5834,0.6004,0.6169,0.6335,0.6505,0.6672,0.6837,0.7004,0.7169,0.7337,0.7505,0.7671,0.7836,0.8006,0.817,0.8337,0.8509,0.8673,0.8836,0.9009,0.9172,0.9337,0.9509,0.9675,0.9839,1.0006,1.0173,1.0338,1.0512,1.0674,1.0841,1.1008,1.1174]","[1,1,1,1,1,1,1,1,1,1,1,1,1,1,1,1,1,1,1,1,1,1,1,1,1,1,1,1,1,1,1,1,2,2,2,2,2,2,2,2,2,2,2,2,2,2,2,2,2,2,2,2,2,2,2,2,2,2,2,2,2,2,2,2,2,2,2,2]",8,52.5196,4,14,0,14,0,1,participnt2,4,SV_6SxWlNLsoRj8nqK,304B,2022-06-27_14h52.23.998,implicit_time,2021.1.4,Linux x86_64,59.95563283
cursorjump,67.5,0,0,10,NA,0,NA,0,0,0.5,FALSE,practice,0,"[-0.0125,-0.0125,-0.0125,-0.0125,-0.0125,-0.0125,-0.0125,-0.0125,-0.0125,-0.0125,-0.0125,-0.0125,-0.0125,-0.0125,-0.0125,-0.0125,-0.0125,-0.0125,-0.0125,-0.0125,-0.010417,-0.010417,-0.010417,-0.010417,-0.004167,0.010417,0.029167,0.041667,0.060417,0.06875,0.089583,0.129167,0.18125,0.208333,0.252083,0.275,0.308333,0.316667,0.314583,0.314583,0.314583,0.314583,0.314583,0.3125,0.30625,0.28125,0.245833,0.227083,0.19375,0.160417,0.145833,0.1125,0.08125,0.066667,0.041667,0.020833,0.0125,-0.002083,-0.014583,-0.01875,-0.025,-0.03125,-0.033333,-0.035417,-0.0375,-0.0375,-0.0375,-0.0375,-0.0375,-0.0375,-0.0375,-0.0375,-0.0375,-0.0375,-0.0375,-0.0375,-0.0375,-0.0375,-0.0375,-0.033333]","[-0.011111,-0.011111,-0.011111,-0.011111,-0.011111,-0.011111,-0.011111,-0.011111,-0.011111,-0.011111,-0.011111,-0.011111,-0.011111,-0.011111,-0.011111,-0.011111,-0.011111,-0.011111,-0.011111,-0.011111,-0.008,-0.008,0.004444,0.016889,0.048,0.097778,0.16,0.197333,0.272,0.315556,0.418222,0.536444,0.657778,0.713778,0.825778,0.878667,0.953333,0.978222,0.975111,0.975111,0.975111,0.972,0.972,0.968889,0.959556,0.928444,0.888,0.863111,0.816444,0.760444,0.726222,0.651556,0.567556,0.527111,0.446222,0.377778,0.343556,0.284444,0.231556,0.206667,0.166222,0.125778,0.107111,0.076,0.054222,0.048,0.038667,0.038667,0.038667,0.038667,0.038667,0.038667,0.038667,0.038667,0.038667,0.038667,0.035556,0.035556,0.032444,0.023111]","[0.0005,0.0191,0.0351,0.051,0.0661,0.0844,0.0999,0.1176,0.1328,0.1514,0.1676,0.1829,0.2017,0.2177,0.2329,0.2517,0.2685,0.2846,0.3001,0.3186,0.3355,0.352,0.3686,0.3855,0.4019,0.4193,0.4362,0.4528,0.4695,0.4863,0.5027,0.5196,0.5372,0.5533,0.5696,0.5863,0.6029,0.6197,0.6365,0.6529,0.669,0.6862,0.7031,0.7193,0.7366,0.7531,0.7698,0.7866,0.8043,0.82,0.8365,0.8544,0.8712,0.8871,0.9034,0.9203,0.9367,0.953,0.9694,0.9864,1.0028,1.0197,1.0363,1.0527,1.0695,1.0864,1.1028,1.1195,1.1363,1.1529,1.1694,1.1863,1.2027,1.2195,1.2363,1.2528,1.27,1.2866,1.303,1.32]","[1,1,1,1,1,1,1,1,1,1,1,1,1,1,1,1,1,1,1,1,1,1,1,1,1,1,1,1,1,1,1,1,1,1,1,1,2,2,2,2,2,2,2,2,2,2,2,2,2,2,2,2,2,2,2,2,2,2,2,2,2,2,2,2,2,2,2,2,2,2,2,2,2,2,2,2,2,2,2,2]",8,54.3552,4,15,0,15,0,1,participnt2,4,SV_6SxWlNLsoRj8nqK,304B,2022-06-27_14h52.23.998,implicit_time,2021.1.4,Linux x86_64,59.95563283
cursorjump,135,0,0.5,10,NA,0,NA,0,1,0.5,FALSE,practice,1,"[-0.00625,-0.004167,-0.004167,0,0.004167,0.008333,0.010417,0.0125,0.0125,0.0125,0.0125,0.0125,0.0125,0.0125,0.0125,0.0125,0.0125,0.0125,0.0125,0.0125,0.0125,0.0125,0.0125,0.0125,0.010417,0.004167,-0.0125,-0.025,-0.060417,-0.104167,-0.129167,-0.1875,-0.21875,-0.289583,-0.366667,-0.44375,-0.479167,-0.552083,-0.585417,-0.647917,-0.695833,-0.7125,-0.710417,-0.710417,-0.710417,-0.7125,-0.716667,-0.725,-0.727083,-0.71875,-0.695833,-0.677083,-0.633333,-0.570833,-0.533333,-0.458333,-0.3875,-0.354167,-0.289583,-0.233333,-0.20625,-0.15625,-0.114583,-0.097917,-0.070833,-0.052083,-0.045833,-0.035417,-0.029167,-0.027083,-0.022917,-0.022917,-0.020833,-0.020833,-0.01875,-0.016667,-0.0125,-0.010417,0,0.008333,0.016667,0.01875,0.020833,0.020833,0.020833,0.020833,0.020833,0.020833,0.020833,0.01875,0.01875,0.01875,0.01875,0.01875,0.01875,0.01875,0.016667,0.0125]","[-0.008,-0.004889,-0.004889,-0.001778,0.001333,0.001333,0.004444,0.004444,0.004444,0.004444,0.004444,0.004444,0.004444,0.004444,0.004444,0.004444,0.004444,0.004444,0.004444,0.004444,0.004444,0.004444,0.004444,0.004444,0.004444,0.013778,0.035556,0.054222,0.097778,0.150667,0.184889,0.256444,0.296889,0.387111,0.474222,0.555111,0.592444,0.657778,0.688889,0.744889,0.791556,0.810222,0.807111,0.804,0.800889,0.800889,0.797778,0.788444,0.782222,0.772889,0.748,0.732444,0.692,0.639111,0.611111,0.548889,0.486667,0.455556,0.399556,0.349778,0.328,0.293778,0.265778,0.253333,0.231556,0.212889,0.206667,0.191111,0.181778,0.178667,0.172444,0.169333,0.163111,0.16,0.156889,0.153778,0.150667,0.147556,0.138222,0.125778,0.110222,0.104,0.088444,0.082222,0.069778,0.057333,0.051111,0.048,0.044889,0.044889,0.044889,0.044889,0.044889,0.044889,0.044889,0.044889,0.041778,0.035556]","[0.0005,0.0168,0.0331,0.0498,0.0663,0.083,0.0999,0.1162,0.1328,0.1514,0.1664,0.1828,0.1997,0.2161,0.233,0.2498,0.2661,0.2828,0.2998,0.3162,0.3331,0.3499,0.3664,0.3834,0.4001,0.4165,0.4337,0.4502,0.4666,0.4834,0.5002,0.517,0.5334,0.5503,0.5668,0.5834,0.6003,0.6168,0.6335,0.6506,0.6693,0.6837,0.7006,0.717,0.7339,0.7506,0.7671,0.7836,0.8006,0.8171,0.834,0.8506,0.8672,0.8838,0.9007,0.9171,0.9338,0.9509,0.9672,0.9839,1.0008,1.0172,1.034,1.0509,1.0672,1.084,1.1011,1.1174,1.1342,1.1509,1.1674,1.1842,1.2011,1.2176,1.2343,1.2512,1.2676,1.2842,1.3012,1.3179,1.3342,1.3512,1.3676,1.3845,1.4013,1.4176,1.4345,1.4517,1.4681,1.4846,1.5014,1.5179,1.5344,1.5506,1.5649,1.5844,1.6017,1.618]","[1,1,1,1,1,1,1,1,1,1,1,1,1,1,1,1,1,1,1,1,1,1,1,1,1,1,1,1,1,1,1,1,1,1,1,1,1,1,1,2,2,2,2,2,2,2,2,2,2,2,2,2,2,2,2,2,2,2,2,2,2,2,2,2,2,2,2,2,2,2,2,2,2,2,2,2,2,2,2,2,2,2,2,2,2,2,2,2,2,2,2,2,2,2,2,2,2,2]",9,56.4908,4,16,0,16,0,1,participnt2,4,SV_6SxWlNLsoRj8nqK,304B,2022-06-27_14h52.23.998,implicit_time,2021.1.4,Linux x86_64,59.95563283
cursorjump,142.5,0,0,10,NA,0,NA,0,0,0.5,FALSE,practice,0,"[0.022917,0.022917,0.022917,0.022917,0.022917,0.022917,0.022917,0.022917,0.022917,0.022917,0.022917,0.022917,0.022917,0.022917,0.022917,0.022917,0.022917,0.022917,0.022917,0.022917,0.022917,0.01875,0.014583,-0.002083,-0.0125,-0.041667,-0.08125,-0.122917,-0.147917,-0.20625,-0.239583,-0.314583,-0.391667,-0.472917,-0.514583,-0.597917,-0.639583,-0.716667,-0.7875,-0.85,-0.879167,-0.9125,-0.91875,-0.916667,-0.914583,-0.914583,-0.914583,-0.9125,-0.90625,-0.875,-0.816667,-0.747917,-0.7125,-0.6375,-0.597917,-0.51875,-0.44375,-0.375,-0.34375,-0.285417,-0.260417,-0.210417,-0.16875,-0.133333,-0.11875,-0.091667,-0.08125,-0.064583,-0.054167,-0.05,-0.047917,-0.045833,-0.04375,-0.039583,-0.0375,-0.0375,-0.035417,-0.035417,-0.033333,-0.029167,-0.022917,-0.01875,-0.014583,-0.00625,-0.004167,0.002083,0.00625,0.008333,0.0125]","[0.029333,0.029333,0.029333,0.029333,0.029333,0.029333,0.029333,0.029333,0.029333,0.029333,0.029333,0.029333,0.029333,0.029333,0.029333,0.029333,0.029333,0.029333,0.029333,0.029333,0.029333,0.032444,0.032444,0.041778,0.048,0.066667,0.094667,0.132,0.150667,0.194222,0.216,0.262667,0.312444,0.359111,0.384,0.430667,0.452444,0.496,0.536444,0.570667,0.586222,0.604889,0.611111,0.608,0.608,0.604889,0.604889,0.604889,0.601778,0.586222,0.561333,0.527111,0.508444,0.464889,0.443111,0.396444,0.356,0.315556,0.296889,0.259556,0.244,0.216,0.191111,0.169333,0.16,0.138222,0.132,0.116444,0.107111,0.104,0.100889,0.100889,0.097778,0.097778,0.094667,0.094667,0.094667,0.094667,0.091556,0.088444,0.085333,0.082222,0.079111,0.072889,0.066667,0.054222,0.044889,0.041778,0.035556]","[0.0002,0.022,0.0378,0.0542,0.0705,0.0834,0.1043,0.1212,0.1377,0.1545,0.1707,0.1833,0.2,0.2207,0.2373,0.2539,0.2668,0.2878,0.3039,0.3168,0.3378,0.3551,0.3717,0.3881,0.4056,0.4223,0.4389,0.4556,0.4723,0.4888,0.5057,0.5225,0.5389,0.5555,0.5723,0.5909,0.6058,0.6225,0.6392,0.6558,0.6725,0.689,0.706,0.7229,0.7394,0.756,0.7725,0.7889,0.8058,0.8226,0.8394,0.8563,0.8728,0.8893,0.9061,0.9229,0.9394,0.9561,0.9735,0.9894,1.0061,1.0241,1.0389,1.0556,1.0727,1.0892,1.1055,1.1225,1.1394,1.1558,1.1726,1.1897,1.2058,1.2229,1.2392,1.256,1.2729,1.289,1.3056,1.3231,1.3392,1.3559,1.3731,1.3893,1.4059,1.4228,1.4394,1.456,1.4731]","[1,1,1,1,1,1,1,1,1,1,1,1,1,1,1,1,1,1,1,1,1,1,1,1,1,1,1,1,1,1,1,1,1,1,1,1,1,1,1,2,2,2,2,2,2,2,2,2,2,2,2,2,2,2,2,2,2,2,2,2,2,2,2,2,2,2,2,2,2,2,2,2,2,2,2,2,2,2,2,2,2,2,2,2,2,2,2,2,2]",9,58.477,4,17,0,17,0,1,participnt2,4,SV_6SxWlNLsoRj8nqK,304B,2022-06-27_14h52.23.998,implicit_time,2021.1.4,Linux x86_64,59.95563283
cursorjump,45,0,0.5,10,NA,0,NA,0,1,0.5,FALSE,practice,1,"[0.016667,0.016667,0.016667,0.016667,0.016667,0.016667,0.016667,0.016667,0.016667,0.016667,0.016667,0.016667,0.016667,0.016667,0.016667,0.016667,0.016667,0.016667,0.016667,0.016667,0.016667,0.025,0.033333,0.0625,0.108333,0.164583,0.191667,0.247917,0.275,0.339583,0.377083,0.508333,0.552083,0.625,0.658333,0.6625,0.6625,0.6625,0.6625,0.6625,0.6625,0.660417,0.654167,0.647917,0.620833,0.579167,0.554167,0.497917,0.4375,0.40625,0.345833,0.28125,0.25,0.189583,0.141667,0.120833,0.091667,0.064583,0.05625,0.04375,0.039583,0.039583,0.0375,0.0375,0.0375,0.035417,0.0375,0.0375,0.0375,0.035417,0.035417,0.033333,0.033333,0.033333,0.03125,0.033333,0.033333,0.033333,0.033333,0.033333,0.033333,0.03125,0.03125,0.029167,0.029167,0.029167,0.029167,0.029167,0.029167,0.029167,0.029167,0.029167,0.029167,0.029167,0.029167,0.029167,0.029167,0.029167,0.029167,0.029167,0.029167,0.029167,0.029167,0.029167,0.029167,0.029167,0.029167,0.029167,0.029167,0.029167,0.029167,0.029167,0.029167,0.029167,0.029167,0.029167,0.029167,0.029167,0.029167,0.029167,0.029167,0.029167,0.029167,0.029167,0.029167,0.029167,0.025,0.016667]","[0.007556,0.007556,0.007556,0.007556,0.007556,0.007556,0.007556,0.007556,0.007556,0.007556,0.007556,0.007556,0.007556,0.007556,0.007556,0.007556,0.007556,0.007556,0.007556,0.007556,0.007556,0.016889,0.029333,0.066667,0.122667,0.191111,0.228444,0.312444,0.356,0.458667,0.511556,0.670222,0.713778,0.782222,0.813333,0.816444,0.813333,0.810222,0.810222,0.810222,0.810222,0.810222,0.813333,0.810222,0.800889,0.772889,0.754222,0.707556,0.651556,0.617333,0.548889,0.477333,0.44,0.371556,0.318667,0.296889,0.259556,0.228444,0.216,0.200444,0.191111,0.188,0.184889,0.178667,0.175556,0.166222,0.150667,0.141333,0.116444,0.082222,0.066667,0.044889,0.032444,0.029333,0.029333,0.029333,0.029333,0.029333,0.029333,0.029333,0.029333,0.029333,0.032444,0.035556,0.038667,0.038667,0.038667,0.038667,0.038667,0.038667,0.038667,0.038667,0.038667,0.038667,0.038667,0.038667,0.038667,0.038667,0.038667,0.038667,0.038667,0.038667,0.038667,0.038667,0.038667,0.038667,0.038667,0.038667,0.038667,0.038667,0.038667,0.038667,0.038667,0.038667,0.038667,0.038667,0.038667,0.038667,0.038667,0.038667,0.038667,0.038667,0.038667,0.038667,0.038667,0.038667,0.035556,0.029333]","[0.0004,0.0166,0.0331,0.0496,0.0662,0.0831,0.0995,0.1163,0.1333,0.1494,0.1665,0.1834,0.199,0.2112,0.2283,0.2497,0.2659,0.2783,0.2997,0.3164,0.3331,0.35,0.3666,0.3841,0.4001,0.4166,0.4335,0.4499,0.4668,0.4835,0.5001,0.5169,0.5336,0.5501,0.5692,0.5841,0.6004,0.6173,0.6336,0.6502,0.6666,0.6839,0.7004,0.7169,0.734,0.7503,0.7674,0.7838,0.8005,0.8171,0.834,0.8509,0.8671,0.884,0.9007,0.9173,0.9342,0.9507,0.9675,0.9844,1.0006,1.0175,1.0342,1.0509,1.0673,1.0844,1.1009,1.1176,1.1345,1.1509,1.1676,1.1845,1.2009,1.2179,1.2345,1.2508,1.2676,1.2844,1.3011,1.3173,1.3286,1.3452,1.3628,1.385,1.4012,1.4174,1.4286,1.4453,1.4618,1.4795,1.4962,1.5121,1.5286,1.5462,1.562,1.5795,1.5964,1.612,1.6285,1.6462,1.6621,1.6786,1.6954,1.7122,1.7286,1.7454,1.7623,1.7788,1.7956,1.8124,1.8289,1.8456,1.8625,1.8791,1.8959,1.9126,1.9291,1.9457,1.9627,1.9793,1.9963,2.0127,2.0293,2.046,2.0626,2.0792,2.0963,2.1128]","[1,1,1,1,1,1,1,1,1,1,1,1,1,1,1,1,1,1,1,1,1,1,1,1,1,1,1,1,1,1,1,1,1,2,2,2,2,2,2,2,2,2,2,2,2,2,2,2,2,2,2,2,2,2,2,2,2,2,2,2,2,2,2,2,2,2,2,2,2,2,2,2,2,2,2,2,2,2,2,2,2,2,2,2,2,2,2,2,2,2,2,2,2,2,2,2,2,2,2,2,2,2,2,2,2,2,2,2,2,2,2,2,2,2,2,2,2,2,2,2,2,2,2,2,2,2,2,2]",10,61.1069,4,18,0,18,0,1,participnt2,4,SV_6SxWlNLsoRj8nqK,304B,2022-06-27_14h52.23.998,implicit_time,2021.1.4,Linux x86_64,59.95563283
cursorjump,37.5,0,0,10,NA,0,NA,0,0,0.5,FALSE,practice,0,"[-0.020833,-0.020833,-0.020833,-0.020833,-0.020833,-0.020833,-0.020833,-0.020833,-0.020833,-0.020833,-0.020833,-0.020833,-0.020833,-0.020833,-0.020833,-0.020833,-0.020833,-0.020833,-0.020833,-0.020833,-0.020833,-0.01875,-0.010417,0.016667,0.039583,0.097917,0.160417,0.189583,0.25,0.31875,0.354167,0.429167,0.495833,0.527083,0.5875,0.645833,0.672917,0.722917,0.764583,0.775,0.78125,0.78125,0.779167,0.760417,0.716667,0.683333,0.6,0.50625,0.45625,0.354167,0.252083,0.204167,0.122917,0.091667,0.047917,0.016667,-0.00625,-0.014583,-0.025,-0.027083,-0.029167,-0.029167,-0.029167,-0.029167,-0.029167,-0.029167,-0.027083,-0.027083,-0.027083,-0.027083,-0.027083,-0.027083,-0.022917,-0.020833,-0.016667,-0.008333,-0.002083,0,0.00625,0.010417,0.014583,0.01875,0.022917,0.022917,0.025,0.025,0.027083]","[0.02,0.02,0.02,0.02,0.02,0.02,0.02,0.02,0.02,0.02,0.02,0.02,0.02,0.02,0.02,0.02,0.02,0.02,0.02,0.02,0.02,0.02,0.026222,0.057333,0.079111,0.141333,0.206667,0.240889,0.306222,0.371556,0.402667,0.458667,0.508444,0.527111,0.564444,0.601778,0.620444,0.664,0.701333,0.710667,0.72,0.72,0.72,0.72,0.716889,0.707556,0.676444,0.614222,0.576889,0.483556,0.387111,0.343556,0.268889,0.244,0.212889,0.197333,0.188,0.184889,0.184889,0.184889,0.184889,0.184889,0.184889,0.184889,0.184889,0.184889,0.184889,0.184889,0.184889,0.184889,0.181778,0.178667,0.166222,0.156889,0.135111,0.110222,0.085333,0.076,0.063556,0.060444,0.057333,0.051111,0.048,0.044889,0.041778,0.038667,0.029333]","[0.0002,0.0167,0.0337,0.0502,0.0667,0.0834,0.1003,0.1169,0.1336,0.1502,0.1669,0.1838,0.1994,0.2161,0.2328,0.2503,0.2661,0.2836,0.2995,0.3162,0.3337,0.3504,0.3672,0.3831,0.3996,0.4164,0.4331,0.4507,0.4665,0.4832,0.4999,0.5166,0.5333,0.5499,0.5666,0.5834,0.6,0.6166,0.6332,0.6499,0.6668,0.6834,0.7001,0.7168,0.7335,0.75,0.7666,0.7836,0.8003,0.8169,0.8334,0.85,0.8669,0.8836,0.9002,0.9169,0.9335,0.9503,0.9669,0.9837,1.0004,1.017,1.0337,1.0504,1.0672,1.0837,1.1108,1.1256,1.1414,1.1593,1.1755,1.1912,1.2078,1.2248,1.2413,1.2579,1.2746,1.2913,1.3078,1.3247,1.3409,1.3577,1.3746,1.3909,1.4079,1.4246,1.4412]","[1,1,1,1,1,1,1,1,1,1,1,1,1,1,1,1,1,1,1,1,1,1,1,1,1,1,1,1,1,1,1,1,1,1,1,1,1,2,2,2,2,2,2,2,2,2,2,2,2,2,2,2,2,2,2,2,2,2,2,2,2,2,2,2,2,2,2,2,2,2,2,2,2,2,2,2,2,2,2,2,2,2,2,2,2,2,2]",10,63.5664,4,19,0,19,0,1,participnt2,4,SV_6SxWlNLsoRj8nqK,304B,2022-06-27_14h52.23.998,implicit_time,2021.1.4,Linux x86_64,59.95563283
cursorjump,75,0,0.5,10,NA,0,NA,0,1,0.5,FALSE,practice,1,"[0.025,0.025,0.025,0.025,0.025,0.025,0.025,0.025,0.025,0.025,0.025,0.025,0.025,0.025,0.025,0.025,0.025,0.025,0.025,0.025,0.025,0.022917,0.01875,0.016667,0.020833,0.0375,0.060417,0.072917,0.09375,0.104167,0.127083,0.158333,0.179167,0.23125,0.285417,0.310417,0.3375,0.335417,0.329167,0.325,0.31875,0.314583,0.30625,0.295833,0.275,0.264583,0.239583,0.225,0.19375,0.1625,0.145833,0.116667,0.0875,0.075,0.054167,0.041667,0.0375,0.033333,0.03125,0.029167,0.029167,0.03125,0.03125,0.033333,0.0375,0.0375,0.041667,0.041667,0.041667,0.041667,0.0375,0.035417,0.03125,0.029167,0.025,0.020833,0.01875,0.016667]","[0.023111,0.023111,0.023111,0.023111,0.023111,0.023111,0.023111,0.023111,0.023111,0.023111,0.023111,0.023111,0.023111,0.023111,0.023111,0.023111,0.023111,0.023111,0.023111,0.023111,0.023111,0.026222,0.035556,0.044889,0.079111,0.132,0.203556,0.240889,0.328,0.371556,0.471111,0.589333,0.651556,0.772889,0.875556,0.916,0.962667,0.972,0.972,0.975111,0.975111,0.975111,0.978222,0.972,0.950222,0.931556,0.881778,0.850667,0.776,0.688889,0.645333,0.552,0.461778,0.421333,0.359111,0.312444,0.3,0.278222,0.265778,0.259556,0.247111,0.234667,0.225333,0.212889,0.197333,0.194222,0.181778,0.172444,0.156889,0.147556,0.128889,0.119556,0.097778,0.088444,0.069778,0.051111,0.041778,0.035556]","[0.0003,0.0168,0.0333,0.0499,0.0666,0.0833,0.0999,0.1167,0.1334,0.15,0.1667,0.1835,0.2002,0.2169,0.2335,0.2501,0.2669,0.2835,0.3003,0.3169,0.3337,0.3505,0.367,0.3829,0.4005,0.4163,0.4337,0.4503,0.4673,0.4829,0.4996,0.5163,0.533,0.5497,0.5672,0.5839,0.5998,0.6165,0.634,0.6507,0.6666,0.6832,0.7,0.7166,0.7341,0.7498,0.7666,0.7842,0.8,0.8167,0.8334,0.8501,0.8668,0.8834,0.9001,0.9168,0.9334,0.9504,0.9669,0.9835,1.0003,1.0169,1.0334,1.0501,1.067,1.0837,1.1002,1.117,1.1337,1.1505,1.1672,1.1838,1.2004,1.217,1.2337,1.2504,1.2672,1.2839]","[1,1,1,1,1,1,1,1,1,1,1,1,1,1,1,1,1,1,1,1,1,1,1,1,1,1,1,1,1,1,1,1,1,1,1,2,2,2,2,2,2,2,2,2,2,2,2,2,2,2,2,2,2,2,2,2,2,2,2,2,2,2,2,2,2,2,2,2,2,2,2,2,2,2,2,2,2,2]",11,65.36,4,20,0,20,0,1,participnt2,4,SV_6SxWlNLsoRj8nqK,304B,2022-06-27_14h52.23.998,implicit_time,2021.1.4,Linux x86_64,59.95563283
cursorjump,82.5,0,0,10,NA,0,NA,0,0,0.5,FALSE,practice,0,"[0.00625,0.00625,0.00625,0.00625,0.00625,0.00625,0.00625,0.00625,0.00625,0.00625,0.004167,0.004167,0.004167,0.004167,0.004167,0.004167,0.004167,0.004167,0.00625,0.00625,0.00625,0.008333,0.016667,0.022917,0.045833,0.072917,0.0875,0.1125,0.135417,0.147917,0.18125,0.216667,0.23125,0.247917,0.25,0.247917,0.241667,0.2375,0.233333,0.227083,0.225,0.216667,0.204167,0.1875,0.177083,0.15625,0.14375,0.116667,0.09375,0.075,0.06875,0.060417,0.05625,0.052083,0.05,0.047917,0.047917,0.045833,0.04375,0.041667,0.039583,0.039583,0.0375,0.035417,0.035417,0.035417,0.033333,0.03125,0.03125,0.029167,0.027083,0.025,0.020833,0.01875,0.01875,0.016667,0.014583,0.0125,0.0125,0.0125,0.014583,0.014583]","[0.007556,0.007556,0.007556,0.007556,0.007556,0.007556,0.007556,0.007556,0.007556,0.007556,0.007556,0.007556,0.007556,0.007556,0.007556,0.007556,0.007556,0.007556,0.007556,0.007556,0.010667,0.023111,0.057333,0.088444,0.169333,0.281333,0.343556,0.464889,0.583111,0.642222,0.760444,0.866222,0.909778,0.975111,0.990667,0.996889,0.996889,0.996889,0.996889,1,0.996889,0.990667,0.962667,0.912889,0.878667,0.797778,0.754222,0.657778,0.561333,0.468,0.427556,0.356,0.324889,0.275111,0.237778,0.209778,0.197333,0.178667,0.172444,0.163111,0.156889,0.150667,0.150667,0.147556,0.144444,0.144444,0.141333,0.138222,0.135111,0.132,0.125778,0.116444,0.107111,0.097778,0.091556,0.082222,0.076,0.066667,0.054222,0.048,0.041778,0.032444]","[0.0002,0.0166,0.0333,0.0499,0.0666,0.0833,0.1,0.1164,0.1331,0.1502,0.1667,0.1834,0.2,0.2165,0.2334,0.2501,0.267,0.2833,0.3002,0.317,0.3337,0.3504,0.3671,0.3836,0.4004,0.4171,0.4338,0.4506,0.4673,0.4837,0.5004,0.5174,0.534,0.5508,0.5673,0.584,0.6007,0.6173,0.6339,0.6507,0.6686,0.6837,0.6999,0.7175,0.7332,0.7499,0.7676,0.7833,0.8008,0.8176,0.8334,0.8501,0.8676,0.8842,0.901,0.9167,0.9335,0.9502,0.9676,0.9843,1.0002,1.0177,1.0336,1.0503,1.0678,1.0845,1.1003,1.118,1.1337,1.1504,1.1671,1.1836,1.2004,1.2171,1.2338,1.2504,1.2669,1.2839,1.3006,1.3171,1.334,1.3506]","[1,1,1,1,1,1,1,1,1,1,1,1,1,1,1,1,1,1,1,1,1,1,1,1,1,1,1,1,1,1,1,1,1,2,2,2,2,2,2,2,2,2,2,2,2,2,2,2,2,2,2,2,2,2,2,2,2,2,2,2,2,2,2,2,2,2,2,2,2,2,2,2,2,2,2,2,2,2,2,2,2,2]",11,67.2278,4,21,0,21,0,1,participnt2,4,SV_6SxWlNLsoRj8nqK,304B,2022-06-27_14h52.23.998,implicit_time,2021.1.4,Linux x86_64,59.95563283
cursorjump,105,0,0.5,10,NA,0,NA,0,1,0.5,FALSE,practice,1,"[0.004167,0.004167,0.004167,0.004167,0.004167,0.004167,0.004167,0.004167,0.004167,0.004167,0.004167,0.004167,0.004167,0.004167,0.004167,0.004167,0.004167,0.004167,0.004167,0.004167,0.004167,0.004167,0.004167,-0.004167,-0.010417,-0.027083,-0.047917,-0.060417,-0.085417,-0.108333,-0.120833,-0.147917,-0.177083,-0.189583,-0.214583,-0.233333,-0.239583,-0.247917,-0.254167,-0.25625,-0.260417,-0.2625,-0.264583,-0.264583,-0.264583,-0.266667,-0.270833,-0.272917,-0.275,-0.275,-0.270833,-0.266667,-0.25,-0.23125,-0.208333,-0.197917,-0.175,-0.164583,-0.141667,-0.122917,-0.10625,-0.097917,-0.083333,-0.077083,-0.060417,-0.052083,-0.039583,-0.03125,-0.025,-0.020833,-0.016667,-0.014583,-0.014583,-0.0125,-0.010417,-0.00625,-0.002083,-0.002083,-0.002083,-0.002083]","[-0.020444,-0.020444,-0.020444,-0.020444,-0.020444,-0.020444,-0.020444,-0.020444,-0.020444,-0.020444,-0.020444,-0.020444,-0.020444,-0.020444,-0.020444,-0.020444,-0.020444,-0.020444,-0.020444,-0.020444,-0.020444,-0.020444,-0.017333,-0.011111,-0.001778,0.026222,0.069778,0.100889,0.175556,0.265778,0.315556,0.415111,0.514667,0.564444,0.660889,0.748,0.782222,0.850667,0.912889,0.940889,0.984444,0.996889,0.996889,0.993778,0.993778,0.993778,0.993778,0.990667,0.990667,0.987556,0.975111,0.962667,0.922222,0.863111,0.797778,0.760444,0.688889,0.651556,0.576889,0.505333,0.44,0.412,0.362222,0.340444,0.3,0.281333,0.247111,0.219111,0.194222,0.184889,0.169333,0.163111,0.150667,0.144444,0.128889,0.119556,0.091556,0.076,0.048,0.029333]","[0.0002,0.0167,0.0333,0.0501,0.0665,0.0832,0.1002,0.1168,0.1336,0.1502,0.1669,0.1834,0.2,0.217,0.2337,0.2503,0.2667,0.2836,0.3003,0.3171,0.3337,0.3506,0.3672,0.3839,0.4006,0.4172,0.4338,0.4505,0.4672,0.4839,0.5006,0.5174,0.5342,0.5506,0.5673,0.584,0.6006,0.6174,0.6341,0.6506,0.6675,0.6842,0.701,0.7179,0.7344,0.7509,0.7675,0.7846,0.801,0.8177,0.8344,0.8509,0.8677,0.8845,0.9011,0.9178,0.9344,0.951,0.9677,0.9847,1.0013,1.018,1.0347,1.0513,1.068,1.0842,1.101,1.1176,1.1346,1.1513,1.168,1.1842,1.2009,1.2177,1.2345,1.2515,1.2681,1.2843,1.301,1.3178]","[1,1,1,1,1,1,1,1,1,1,1,1,1,1,1,1,1,1,1,1,1,1,1,1,1,1,1,1,1,1,1,1,1,1,1,1,1,1,1,2,2,2,2,2,2,2,2,2,2,2,2,2,2,2,2,2,2,2,2,2,2,2,2,2,2,2,2,2,2,2,2,2,2,2,2,2,2,2,2,2]",12,69.0628,4,22,0,22,0,1,participnt2,4,SV_6SxWlNLsoRj8nqK,304B,2022-06-27_14h52.23.998,implicit_time,2021.1.4,Linux x86_64,59.95563283
cursorjump,97.5,0,0,10,NA,0,NA,0,0,0.5,FALSE,practice,0,"[0.00625,0.00625,0.00625,0.00625,0.00625,0.00625,0.00625,0.00625,0.00625,0.00625,0.00625,0.00625,0.00625,0.00625,0.00625,0.00625,0.00625,0.00625,0.00625,0.00625,0.00625,0.00625,0.00625,0.00625,0.00625,0.00625,0.00625,0.002083,-0.004167,-0.008333,-0.020833,-0.029167,-0.047917,-0.070833,-0.1,-0.114583,-0.14375,-0.152083,-0.164583,-0.172917,-0.18125,-0.1875,-0.204167,-0.2125,-0.225,-0.2375,-0.24375,-0.245833,-0.247917,-0.247917,-0.25,-0.25,-0.252083,-0.254167,-0.252083,-0.247917,-0.2375,-0.23125,-0.214583,-0.19375,-0.172917,-0.160417,-0.141667,-0.122917,-0.114583,-0.097917,-0.08125,-0.070833,-0.054167,-0.039583,-0.033333,-0.022917,-0.0125,-0.008333,0,0.004167,0.004167,0.00625,0.00625,0.008333,0.008333,0.008333,0.008333,0.004167,0.004167,0.004167,0.004167]","[-0.017333,-0.017333,-0.017333,-0.017333,-0.017333,-0.017333,-0.017333,-0.017333,-0.017333,-0.017333,-0.017333,-0.017333,-0.017333,-0.017333,-0.017333,-0.017333,-0.017333,-0.017333,-0.017333,-0.017333,-0.017333,-0.017333,-0.017333,-0.017333,-0.017333,-0.017333,-0.017333,-0.011111,0.004444,0.016889,0.054222,0.079111,0.138222,0.206667,0.284444,0.328,0.415111,0.461778,0.561333,0.654667,0.741778,0.782222,0.853778,0.884889,0.940889,0.981333,1.003111,1.003111,1,1,1,0.996889,0.996889,0.996889,0.984444,0.975111,0.940889,0.916,0.863111,0.800889,0.735556,0.701333,0.632889,0.558222,0.524,0.452444,0.390222,0.362222,0.312444,0.268889,0.253333,0.222222,0.197333,0.184889,0.169333,0.156889,0.150667,0.144444,0.141333,0.138222,0.125778,0.110222,0.097778,0.076,0.057333,0.048,0.032444]","[0.0002,0.0169,0.0333,0.0501,0.0665,0.0833,0.1001,0.1167,0.1334,0.1501,0.1668,0.1834,0.2002,0.2168,0.2334,0.2503,0.2668,0.2833,0.3003,0.3169,0.3336,0.3504,0.3671,0.3836,0.4004,0.417,0.4337,0.4504,0.4672,0.4839,0.5003,0.5172,0.534,0.5507,0.5673,0.584,0.6008,0.6174,0.6342,0.6509,0.6675,0.6841,0.7002,0.7176,0.7343,0.751,0.7677,0.7844,0.8002,0.8178,0.8342,0.851,0.8669,0.8843,0.9003,0.917,0.9336,0.9503,0.967,0.9843,1.0011,1.0171,1.0338,1.0504,1.0671,1.0844,1.1011,1.118,1.134,1.1511,1.1682,1.184,1.2006,1.2173,1.234,1.2513,1.2673,1.284,1.3008,1.3174,1.334,1.3504,1.3672,1.3842,1.4008,1.4175,1.4342]","[1,1,1,1,1,1,1,1,1,1,1,1,1,1,1,1,1,1,1,1,1,1,1,1,1,1,1,1,1,1,1,1,1,1,1,1,1,1,1,1,1,1,1,1,2,2,2,2,2,2,2,2,2,2,2,2,2,2,2,2,2,2,2,2,2,2,2,2,2,2,2,2,2,2,2,2,2,2,2,2,2,2,2,2,2,2,2]",12,71.5986,4,23,0,23,0,1,participnt2,4,SV_6SxWlNLsoRj8nqK,304B,2022-06-27_14h52.23.998,implicit_time,2021.1.4,Linux x86_64,59.95563283
cursorjump,75,0,0.5,10,NA,0,NA,0,1,0.5,FALSE,practice,1,"[0.004167,0.004167,0.004167,0.004167,0.004167,0.004167,0.004167,0.004167,0.004167,0.004167,0.004167,0.004167,0.004167,0.004167,0.004167,0.004167,0.004167,0.004167,0.004167,0.004167,0.002083,0.002083,0.002083,0.008333,0.022917,0.035417,0.070833,0.089583,0.125,0.160417,0.195833,0.216667,0.2625,0.285417,0.329167,0.35,0.35,0.35,0.347917,0.347917,0.347917,0.345833,0.341667,0.3375,0.325,0.302083,0.2875,0.25625,0.227083,0.214583,0.1875,0.158333,0.145833,0.120833,0.102083,0.09375,0.08125,0.070833,0.06875,0.0625,0.060417,0.058333,0.05625,0.052083,0.05,0.047917,0.047917,0.047917,0.047917,0.05,0.05,0.05,0.05,0.047917,0.04375,0.039583,0.035417,0.03125,0.029167,0.025,0.022917,0.020833]","[0.007556,0.007556,0.007556,0.007556,0.007556,0.007556,0.007556,0.007556,0.007556,0.007556,0.007556,0.007556,0.007556,0.007556,0.007556,0.007556,0.007556,0.007556,0.007556,0.007556,0.013778,0.02,0.044889,0.082222,0.132,0.166222,0.240889,0.284444,0.377778,0.483556,0.601778,0.664,0.785333,0.841333,0.928444,0.965778,0.968889,0.968889,0.965778,0.965778,0.965778,0.965778,0.965778,0.965778,0.953333,0.925333,0.906667,0.853778,0.788444,0.751111,0.667111,0.576889,0.530222,0.433778,0.346667,0.306222,0.247111,0.203556,0.188,0.166222,0.150667,0.144444,0.135111,0.132,0.128889,0.128889,0.128889,0.128889,0.128889,0.128889,0.125778,0.119556,0.107111,0.100889,0.088444,0.072889,0.066667,0.054222,0.048,0.041778,0.035556,0.029333]","[0.0003,0.0166,0.0332,0.0498,0.0664,0.0829,0.0997,0.1164,0.133,0.1499,0.1666,0.1832,0.1999,0.2166,0.2333,0.25,0.2665,0.2833,0.2999,0.3166,0.3332,0.3501,0.3668,0.3835,0.4002,0.4168,0.4335,0.4503,0.467,0.4835,0.5002,0.5168,0.5335,0.5502,0.5669,0.5836,0.6006,0.6171,0.6338,0.6505,0.6672,0.6837,0.7003,0.7171,0.734,0.7507,0.7671,0.7839,0.8007,0.8173,0.834,0.8508,0.8672,0.884,0.9008,0.9173,0.9342,0.9508,0.9675,0.9833,1,1.0165,1.0343,1.0508,1.0677,1.0843,1.101,1.1166,1.1344,1.1509,1.1676,1.1835,1.2001,1.2169,1.2344,1.251,1.2678,1.2837,1.3003,1.317,1.3346,1.3512]","[1,1,1,1,1,1,1,1,1,1,1,1,1,1,1,1,1,1,1,1,1,1,1,1,1,1,1,1,1,1,1,1,1,1,2,2,2,2,2,2,2,2,2,2,2,2,2,2,2,2,2,2,2,2,2,2,2,2,2,2,2,2,2,2,2,2,2,2,2,2,2,2,2,2,2,2,2,2,2,2,2,2]",13,73.4673,4,24,0,24,0,1,participnt2,4,SV_6SxWlNLsoRj8nqK,304B,2022-06-27_14h52.23.998,implicit_time,2021.1.4,Linux x86_64,59.95563283
cursorjump,67.5,0,0,10,NA,0,NA,0,0,0.5,FALSE,practice,0,"[0.014583,0.014583,0.014583,0.016667,0.016667,0.016667,0.016667,0.016667,0.014583,0.014583,0.014583,0.014583,0.014583,0.014583,0.014583,0.014583,0.014583,0.014583,0.014583,0.014583,0.014583,0.014583,0.016667,0.025,0.033333,0.0625,0.083333,0.13125,0.189583,0.252083,0.283333,0.345833,0.377083,0.45,0.50625,0.520833,0.520833,0.520833,0.520833,0.522917,0.53125,0.535417,0.535417,0.525,0.514583,0.4875,0.45625,0.439583,0.402083,0.358333,0.335417,0.283333,0.229167,0.202083,0.160417,0.13125,0.11875,0.1,0.083333,0.075,0.0625,0.052083,0.045833,0.035417,0.027083,0.022917,0.01875,0.016667,0.016667,0.014583,0.010417,0.008333,0.004167,0.002083,0,0,-0.002083,-0.002083,-0.002083,0,0.002083,0.004167,0.00625,0.00625]","[-0.023556,-0.023556,-0.023556,-0.023556,-0.023556,-0.023556,-0.023556,-0.023556,-0.023556,-0.023556,-0.023556,-0.023556,-0.023556,-0.023556,-0.023556,-0.023556,-0.023556,-0.023556,-0.023556,-0.023556,-0.023556,-0.020444,-0.011111,0.010667,0.029333,0.085333,0.122667,0.209778,0.312444,0.424444,0.486667,0.611111,0.673333,0.797778,0.878667,0.894222,0.894222,0.894222,0.894222,0.891111,0.888,0.884889,0.881778,0.872444,0.863111,0.841333,0.813333,0.797778,0.757333,0.707556,0.676444,0.608,0.533333,0.499111,0.436889,0.387111,0.365333,0.331111,0.296889,0.281333,0.256444,0.231556,0.219111,0.197333,0.178667,0.172444,0.166222,0.166222,0.166222,0.163111,0.156889,0.153778,0.147556,0.138222,0.135111,0.122667,0.107111,0.097778,0.082222,0.069778,0.063556,0.054222,0.044889,0.038667]","[0.0018,0.0168,0.0332,0.0497,0.0663,0.083,0.0995,0.1163,0.1333,0.1493,0.1665,0.1831,0.1998,0.2166,0.2331,0.2498,0.2665,0.2833,0.2996,0.3167,0.3334,0.3499,0.3666,0.3834,0.4001,0.4168,0.4335,0.4501,0.4669,0.4836,0.5002,0.5167,0.5335,0.5502,0.567,0.5836,0.6004,0.6171,0.6337,0.6504,0.667,0.6838,0.7006,0.7172,0.7338,0.7504,0.767,0.7839,0.8007,0.8173,0.834,0.8506,0.8674,0.8841,0.9007,0.9172,0.934,0.9509,0.9675,0.9841,1.0009,1.0173,1.0341,1.0508,1.0676,1.0841,1.1009,1.1176,1.1342,1.1507,1.1677,1.1843,1.2011,1.2176,1.2345,1.2511,1.2677,1.2843,1.3012,1.3177,1.3344,1.3512,1.3679,1.3836]","[1,1,1,1,1,1,1,1,1,1,1,1,1,1,1,1,1,1,1,1,1,1,1,1,1,1,1,1,1,1,1,1,1,1,2,2,2,2,2,2,2,2,2,2,2,2,2,2,2,2,2,2,2,2,2,2,2,2,2,2,2,2,2,2,2,2,2,2,2,2,2,2,2,2,2,2,2,2,2,2,2,2,2,2]",13,75.3677,4,25,0,25,0,1,participnt2,4,SV_6SxWlNLsoRj8nqK,304B,2022-06-27_14h52.23.998,implicit_time,2021.1.4,Linux x86_64,59.95563283
cursorjump,45,0,0.5,10,NA,0,NA,0,1,0.5,FALSE,practice,1,"[0.008333,0.008333,0.008333,0.008333,0.008333,0.008333,0.008333,0.008333,0.008333,0.008333,0.010417,0.010417,0.010417,0.010417,0.0125,0.0125,0.0125,0.0125,0.0125,0.0125,0.014583,0.025,0.047917,0.064583,0.110417,0.135417,0.185417,0.235417,0.297917,0.333333,0.410417,0.452083,0.535417,0.614583,0.6875,0.722917,0.76875,0.783333,0.783333,0.783333,0.783333,0.783333,0.783333,0.783333,0.779167,0.760417,0.714583,0.68125,0.60625,0.566667,0.49375,0.422917,0.352083,0.320833,0.258333,0.229167,0.179167,0.141667,0.110417,0.097917,0.077083,0.06875,0.058333,0.052083,0.05,0.05,0.047917,0.05,0.052083,0.05625,0.058333,0.060417,0.058333,0.052083,0.05,0.04375,0.041667,0.035417,0.03125,0.027083,0.025,0.020833]","[0.016889,0.016889,0.016889,0.016889,0.016889,0.016889,0.016889,0.016889,0.016889,0.016889,0.013778,0.010667,0.004444,0.001333,-0.004889,-0.011111,-0.014222,-0.014222,-0.014222,-0.014222,-0.008,0.007556,0.038667,0.063556,0.122667,0.153778,0.216,0.284444,0.356,0.393333,0.471111,0.505333,0.564444,0.614222,0.657778,0.676444,0.704444,0.713778,0.713778,0.713778,0.713778,0.710667,0.713778,0.713778,0.713778,0.710667,0.692,0.676444,0.632889,0.604889,0.545778,0.483556,0.421333,0.393333,0.340444,0.315556,0.272,0.240889,0.212889,0.197333,0.175556,0.163111,0.150667,0.141333,0.138222,0.135111,0.132,0.125778,0.122667,0.110222,0.104,0.088444,0.072889,0.057333,0.051111,0.044889,0.044889,0.041778,0.038667,0.038667,0.035556,0.032444]","[0.0005,0.0161,0.0333,0.0499,0.0667,0.0831,0.0999,0.1162,0.133,0.1496,0.1668,0.1835,0.2001,0.2166,0.2334,0.2502,0.2669,0.2836,0.3003,0.317,0.3337,0.3502,0.367,0.3837,0.4004,0.4171,0.4336,0.4503,0.4671,0.4839,0.5003,0.517,0.5339,0.5506,0.5672,0.5839,0.6007,0.6191,0.634,0.6507,0.6674,0.6839,0.7005,0.7174,0.7342,0.7509,0.7675,0.7842,0.8008,0.8176,0.8342,0.8509,0.8674,0.8842,0.9009,0.9176,0.9345,0.9511,0.9676,0.9843,1.0011,1.0176,1.0344,1.0512,1.068,1.0844,1.1011,1.1178,1.1346,1.1513,1.1679,1.1845,1.2012,1.2181,1.2347,1.2514,1.2681,1.2846,1.3013,1.3182,1.3348,1.3516]","[1,1,1,1,1,1,1,1,1,1,1,1,1,1,1,1,1,1,1,1,1,1,1,1,1,1,1,1,1,1,1,1,1,1,1,2,2,2,2,2,2,2,2,2,2,2,2,2,2,2,2,2,2,2,2,2,2,2,2,2,2,2,2,2,2,2,2,2,2,2,2,2,2,2,2,2,2,2,2,2,2,2]",14,77.2367,4,26,0,26,0,1,participnt2,4,SV_6SxWlNLsoRj8nqK,304B,2022-06-27_14h52.23.998,implicit_time,2021.1.4,Linux x86_64,59.95563283
cursorjump,37.5,0,0,10,NA,0,NA,0,0,0.5,FALSE,practice,0,"[0.00625,0.00625,0.00625,0.00625,0.00625,0.00625,0.00625,0.00625,0.00625,0.00625,0.00625,0.00625,0.00625,0.00625,0.00625,0.00625,0.00625,0.00625,0.00625,0.002083,-0.002083,-0.004167,-0.002083,0.0125,0.027083,0.070833,0.120833,0.147917,0.202083,0.260417,0.29375,0.370833,0.4125,0.50625,0.597917,0.677083,0.710417,0.754167,0.766667,0.764583,0.764583,0.7625,0.7625,0.758333,0.747917,0.733333,0.685417,0.614583,0.575,0.495833,0.41875,0.379167,0.30625,0.24375,0.216667,0.175,0.14375,0.13125,0.10625,0.0875,0.079167,0.064583,0.054167,0.05,0.041667,0.0375,0.033333,0.029167,0.022917,0.016667,0.00625,-0.004167,-0.008333,-0.010417,-0.0125,-0.0125,-0.0125,-0.0125,-0.010417,-0.008333]","[0.010667,0.010667,0.010667,0.010667,0.010667,0.010667,0.010667,0.010667,0.010667,0.010667,0.010667,0.010667,0.010667,0.010667,0.010667,0.010667,0.010667,0.010667,0.010667,0.010667,0.010667,0.010667,0.013778,0.032444,0.051111,0.094667,0.144444,0.172444,0.228444,0.293778,0.331111,0.415111,0.455556,0.542667,0.617333,0.673333,0.695111,0.723111,0.732444,0.732444,0.732444,0.732444,0.732444,0.735556,0.738667,0.738667,0.72,0.679556,0.648444,0.58,0.505333,0.464889,0.387111,0.315556,0.284444,0.240889,0.216,0.206667,0.194222,0.181778,0.178667,0.169333,0.163111,0.16,0.153778,0.147556,0.144444,0.132,0.113333,0.104,0.085333,0.069778,0.066667,0.060444,0.060444,0.060444,0.057333,0.051111,0.044889,0.035556]","[0.0005,0.0163,0.0321,0.0489,0.065,0.083,0.0997,0.1163,0.1322,0.1489,0.1655,0.182,0.1987,0.2156,0.2324,0.249,0.2655,0.2823,0.2989,0.3155,0.3323,0.3492,0.3656,0.3823,0.3991,0.4159,0.433,0.4492,0.4657,0.4824,0.4991,0.5158,0.5328,0.5494,0.5659,0.5825,0.5993,0.616,0.6329,0.6495,0.6662,0.6826,0.6993,0.7162,0.7329,0.7496,0.766,0.7827,0.7996,0.8165,0.8331,0.8495,0.8663,0.8831,0.8996,0.9166,0.9331,0.9496,0.9664,0.9833,0.9997,1.0166,1.0334,1.05,1.0667,1.0831,1.0998,1.1166,1.1334,1.1501,1.1665,1.1832,1.2002,1.2168,1.2333,1.25,1.267,1.2833,1.2999,1.3168]","[1,1,1,1,1,1,1,1,1,1,1,1,1,1,1,1,1,1,1,1,1,1,1,1,1,1,1,1,1,1,1,1,1,1,1,1,2,2,2,2,2,2,2,2,2,2,2,2,2,2,2,2,2,2,2,2,2,2,2,2,2,2,2,2,2,2,2,2,2,2,2,2,2,2,2,2,2,2,2,2]",14,79.071,4,27,0,27,0,1,participnt2,4,SV_6SxWlNLsoRj8nqK,304B,2022-06-27_14h52.23.998,implicit_time,2021.1.4,Linux x86_64,59.95563283
cursorjump,105,0,0.5,10,NA,0,NA,0,1,0.5,FALSE,practice,1,"[0.004167,0.004167,0.004167,0.004167,0.004167,0.004167,0.004167,0.004167,0.004167,0.004167,0.004167,0.004167,0.004167,0.004167,0.004167,0.004167,0.004167,0.004167,0.004167,0.004167,0.004167,0.004167,-0.002083,-0.010417,-0.01875,-0.025,-0.0375,-0.045833,-0.0625,-0.089583,-0.127083,-0.147917,-0.1875,-0.20625,-0.235417,-0.264583,-0.3,-0.316667,-0.354167,-0.372917,-0.391667,-0.395833,-0.395833,-0.395833,-0.395833,-0.397917,-0.402083,-0.408333,-0.40625,-0.395833,-0.379167,-0.370833,-0.35,-0.325,-0.3125,-0.283333,-0.254167,-0.241667,-0.2125,-0.185417,-0.172917,-0.15,-0.13125,-0.120833,-0.10625,-0.091667,-0.085417,-0.075,-0.06875,-0.064583,-0.058333,-0.05,-0.045833,-0.039583,-0.033333,-0.03125,-0.027083,-0.022917,-0.020833,-0.01875,-0.01875,-0.01875,-0.01875,-0.01875,-0.01875,-0.01875,-0.01875,-0.01875,-0.01875,-0.01875,-0.01875,-0.01875,-0.01875,-0.01875,-0.01875,-0.01875,-0.01875,-0.01875,-0.01875,-0.01875,-0.016667,-0.014583,-0.014583,-0.0125]","[0.001333,0.001333,0.001333,0.001333,0.001333,0.001333,0.001333,0.001333,0.001333,0.001333,0.001333,0.001333,0.001333,0.001333,0.001333,0.001333,0.001333,0.001333,0.001333,0.001333,0.001333,0.004444,0.013778,0.026222,0.051111,0.066667,0.104,0.128889,0.184889,0.256444,0.337333,0.380889,0.474222,0.520889,0.617333,0.710667,0.791556,0.828889,0.894222,0.922222,0.959556,0.962667,0.959556,0.959556,0.959556,0.956444,0.956444,0.950222,0.940889,0.916,0.881778,0.86,0.816444,0.766667,0.741778,0.688889,0.632889,0.608,0.552,0.502222,0.477333,0.430667,0.390222,0.368444,0.334222,0.303111,0.287556,0.265778,0.247111,0.237778,0.222222,0.209778,0.203556,0.194222,0.184889,0.181778,0.172444,0.166222,0.16,0.147556,0.128889,0.119556,0.100889,0.079111,0.072889,0.060444,0.054222,0.054222,0.054222,0.054222,0.054222,0.054222,0.054222,0.054222,0.054222,0.054222,0.054222,0.054222,0.051111,0.051111,0.048,0.044889,0.041778,0.035556]","[0.0004,0.0161,0.0326,0.0492,0.0661,0.0827,0.0994,0.116,0.133,0.149,0.1666,0.1833,0.1998,0.2162,0.2332,0.2487,0.2659,0.2824,0.2992,0.3167,0.3333,0.3501,0.3658,0.3826,0.3993,0.4168,0.4334,0.4493,0.4661,0.4835,0.5003,0.5161,0.5328,0.5494,0.5661,0.5828,0.5993,0.6161,0.6329,0.6496,0.6663,0.6829,0.6996,0.7174,0.733,0.7498,0.7664,0.783,0.7998,0.8165,0.8332,0.85,0.8665,0.8832,0.9,0.9165,0.9332,0.9498,0.9665,0.983,1,1.0167,1.0333,1.05,1.0665,1.0831,1.1004,1.1166,1.1335,1.1502,1.1669,1.1835,1.2002,1.2168,1.2336,1.2503,1.2669,1.2833,1.3002,1.3171,1.3337,1.3502,1.3671,1.3836,1.4003,1.4172,1.4338,1.4505,1.467,1.4838,1.5005,1.5173,1.5337,1.5506,1.5671,1.5838,1.6007,1.6171,1.6338,1.6507,1.6672,1.6839,1.7008,1.7175]","[1,1,1,1,1,1,1,1,1,1,1,1,1,1,1,1,1,1,1,1,1,1,1,1,1,1,1,1,1,1,1,1,1,1,1,1,1,1,2,2,2,2,2,2,2,2,2,2,2,2,2,2,2,2,2,2,2,2,2,2,2,2,2,2,2,2,2,2,2,2,2,2,2,2,2,2,2,2,2,2,2,2,2,2,2,2,2,2,2,2,2,2,2,2,2,2,2,2,2,2,2,2,2,2]",15,81.3061,4,28,0,28,0,1,participnt2,4,SV_6SxWlNLsoRj8nqK,304B,2022-06-27_14h52.23.998,implicit_time,2021.1.4,Linux x86_64,59.95563283
cursorjump,112.5,0,0,10,NA,0,NA,0,0,0.5,FALSE,practice,0,"[0.00625,0.00625,0.00625,0.00625,0.00625,0.00625,0.00625,0.00625,0.00625,0.004167,0.004167,0.004167,0.004167,0.004167,0.004167,0.004167,0.004167,0.004167,0.004167,0.004167,0.002083,0,0,-0.00625,-0.014583,-0.01875,-0.03125,-0.047917,-0.058333,-0.083333,-0.097917,-0.129167,-0.164583,-0.202083,-0.220833,-0.258333,-0.277083,-0.3125,-0.341667,-0.354167,-0.35625,-0.35625,-0.35625,-0.358333,-0.358333,-0.360417,-0.360417,-0.354167,-0.347917,-0.327083,-0.304167,-0.289583,-0.258333,-0.222917,-0.204167,-0.166667,-0.135417,-0.11875,-0.091667,-0.064583,-0.04375,-0.035417,-0.01875,-0.0125,0,0.010417,0.01875,0.020833,0.025,0.025,0.027083,0.03125,0.033333,0.033333,0.035417,0.0375,0.041667,0.047917,0.052083,0.054167,0.05625,0.05625,0.05625,0.054167,0.047917,0.045833,0.039583,0.035417,0.03125,0.027083,0.022917]","[-0.017333,-0.017333,-0.017333,-0.017333,-0.017333,-0.017333,-0.017333,-0.017333,-0.017333,-0.017333,-0.017333,-0.014222,-0.014222,-0.014222,-0.011111,-0.011111,-0.011111,-0.008,-0.008,-0.008,-0.008,-0.004889,-0.001778,0.010667,0.032444,0.051111,0.094667,0.150667,0.184889,0.262667,0.306222,0.405778,0.508444,0.608,0.654667,0.744889,0.788444,0.869333,0.937778,0.975111,0.981333,0.978222,0.975111,0.975111,0.972,0.972,0.968889,0.947111,0.928444,0.875556,0.816444,0.785333,0.723111,0.660889,0.629778,0.567556,0.511556,0.483556,0.430667,0.380889,0.340444,0.321778,0.287556,0.275111,0.247111,0.225333,0.206667,0.200444,0.191111,0.188,0.181778,0.172444,0.163111,0.16,0.147556,0.141333,0.125778,0.110222,0.091556,0.085333,0.069778,0.066667,0.060444,0.057333,0.054222,0.054222,0.051111,0.051111,0.044889,0.035556,0.026222]","[0.0005,0.0163,0.0331,0.0487,0.0654,0.0821,0.0989,0.1154,0.1329,0.1488,0.1664,0.1831,0.1997,0.2155,0.2323,0.2489,0.2656,0.2832,0.2998,0.3157,0.3332,0.3491,0.3657,0.3833,0.4,0.4159,0.4333,0.45,0.4659,0.4826,0.4993,0.5165,0.5327,0.5495,0.566,0.5828,0.5994,0.6161,0.6331,0.6496,0.6663,0.6828,0.6997,0.7162,0.7343,0.7496,0.7663,0.7829,0.7997,0.8164,0.8331,0.8497,0.8664,0.8831,0.8997,0.9165,0.9332,0.9497,0.9666,0.9833,0.9999,1.0166,1.0333,1.05,1.0665,1.0832,1.0999,1.1166,1.1333,1.15,1.1667,1.1834,1.2001,1.2168,1.2335,1.25,1.2668,1.2835,1.3001,1.317,1.3336,1.3502,1.3673,1.3834,1.4003,1.4171,1.4336,1.4503,1.467,1.4836,1.5003]","[1,1,1,1,1,1,1,1,1,1,1,1,1,1,1,1,1,1,1,1,1,1,1,1,1,1,1,1,1,1,1,1,1,1,1,1,1,1,2,2,2,2,2,2,2,2,2,2,2,2,2,2,2,2,2,2,2,2,2,2,2,2,2,2,2,2,2,2,2,2,2,2,2,2,2,2,2,2,2,2,2,2,2,2,2,2,2,2,2,2,2]",15,83.324,4,29,0,29,0,1,participnt2,4,SV_6SxWlNLsoRj8nqK,304B,2022-06-27_14h52.23.998,implicit_time,2021.1.4,Linux x86_64,59.95563283
cursorjump,135,0,0.5,10,NA,0,NA,0,1,0.5,FALSE,practice,1,"[0.010417,0.010417,0.010417,0.010417,0.010417,0.010417,0.010417,0.010417,0.010417,0.010417,0.010417,0.010417,0.010417,0.010417,0.010417,0.010417,0.010417,0.010417,0.010417,0.010417,0.010417,0.008333,0,-0.00625,-0.022917,-0.047917,-0.0625,-0.102083,-0.15,-0.179167,-0.24375,-0.316667,-0.352083,-0.422917,-0.4875,-0.516667,-0.575,-0.622917,-0.65625,-0.664583,-0.666667,-0.666667,-0.666667,-0.666667,-0.666667,-0.66875,-0.66875,-0.666667,-0.654167,-0.627083,-0.610417,-0.56875,-0.522917,-0.5,-0.45,-0.4,-0.377083,-0.327083,-0.28125,-0.260417,-0.21875,-0.18125,-0.164583,-0.135417,-0.1125,-0.104167,-0.089583,-0.079167,-0.077083,-0.072917,-0.06875,-0.06875,-0.06875,-0.06875,-0.06875,-0.06875,-0.0625,-0.058333,-0.047917,-0.041667,-0.027083,-0.014583,-0.004167,0,0.004167,0.004167,0.004167,0.004167,0.004167,0.004167,0.004167,0.004167,0.004167,0.004167,0.004167,0.004167,0.004167,0.004167,0.004167,0.004167,0.004167,0.004167,0.00625,0.00625,0.00625,0.00625,0.00625,0.00625,0.00625,0.00625,0.00625,0.00625,0.00625,0.00625,0.008333,0.008333,0.008333,0.008333,0.008333,0.008333,0.008333,0.008333,0.008333,0.008333,0.008333,0.008333,0.008333,0.008333,0.008333,0.008333,0.008333,0.008333,0.00625]","[0.007556,0.007556,0.007556,0.007556,0.007556,0.007556,0.007556,0.007556,0.007556,0.007556,0.007556,0.007556,0.007556,0.007556,0.007556,0.007556,0.007556,0.007556,0.007556,0.007556,0.007556,0.010667,0.023111,0.032444,0.060444,0.100889,0.125778,0.181778,0.247111,0.284444,0.362222,0.443111,0.486667,0.567556,0.645333,0.679556,0.738667,0.788444,0.825778,0.832,0.835111,0.832,0.832,0.828889,0.828889,0.828889,0.828889,0.828889,0.819556,0.800889,0.785333,0.748,0.701333,0.679556,0.629778,0.576889,0.552,0.502222,0.455556,0.433778,0.396444,0.362222,0.346667,0.318667,0.293778,0.284444,0.268889,0.259556,0.253333,0.247111,0.240889,0.234667,0.225333,0.219111,0.203556,0.181778,0.16,0.150667,0.125778,0.116444,0.097778,0.088444,0.082222,0.079111,0.072889,0.072889,0.069778,0.069778,0.069778,0.069778,0.069778,0.069778,0.069778,0.069778,0.069778,0.069778,0.069778,0.069778,0.066667,0.066667,0.066667,0.066667,0.063556,0.063556,0.060444,0.060444,0.057333,0.054222,0.051111,0.051111,0.048,0.048,0.044889,0.044889,0.044889,0.044889,0.044889,0.044889,0.044889,0.044889,0.044889,0.044889,0.044889,0.044889,0.044889,0.044889,0.044889,0.044889,0.044889,0.044889,0.044889,0.044889,0.038667]","[0.0004,0.0168,0.0332,0.0501,0.0665,0.0832,0.1001,0.1166,0.1332,0.1502,0.1667,0.1828,0.2001,0.2168,0.2332,0.2502,0.2665,0.2837,0.3001,0.3169,0.3336,0.3505,0.3665,0.3832,0.4003,0.4165,0.4333,0.4505,0.4673,0.4834,0.5001,0.5172,0.5335,0.5505,0.5672,0.5835,0.6006,0.6168,0.6352,0.6503,0.6684,0.6836,0.7001,0.7169,0.7336,0.7504,0.7669,0.7836,0.8003,0.8169,0.8337,0.8502,0.8669,0.8836,0.9003,0.917,0.934,0.9505,0.9672,0.9836,1.0006,1.0173,1.034,1.0507,1.0673,1.0838,1.1004,1.1173,1.1342,1.1521,1.1677,1.184,1.2006,1.2175,1.2342,1.251,1.2676,1.2841,1.301,1.3177,1.3342,1.3511,1.3677,1.3843,1.4011,1.4177,1.4345,1.451,1.4676,1.4842,1.5012,1.5178,1.5345,1.5512,1.5677,1.5838,1.6013,1.6178,1.6346,1.6513,1.6678,1.6845,1.7014,1.7181,1.7348,1.7513,1.7682,1.7853,1.8017,1.8182,1.8349,1.8516,1.8683,1.885,1.9018,1.9184,1.935,1.9514,1.9681,1.9847,2.0017,2.0184,2.0352,2.0517,2.0683,2.0852,2.1018,2.1185,2.1353,2.1519,2.1686,2.1853,2.202]","[1,1,1,1,1,1,1,1,1,1,1,1,1,1,1,1,1,1,1,1,1,1,1,1,1,1,1,1,1,1,1,1,1,1,1,1,1,2,2,2,2,2,2,2,2,2,2,2,2,2,2,2,2,2,2,2,2,2,2,2,2,2,2,2,2,2,2,2,2,2,2,2,2,2,2,2,2,2,2,2,2,2,2,2,2,2,2,2,2,2,2,2,2,2,2,2,2,2,2,2,2,2,2,2,2,2,2,2,2,2,2,2,2,2,2,2,2,2,2,2,2,2,2,2,2,2,2,2,2,2,2,2,2]",16,86.0433,4,30,0,30,0,1,participnt2,4,SV_6SxWlNLsoRj8nqK,304B,2022-06-27_14h52.23.998,implicit_time,2021.1.4,Linux x86_64,59.95563283
cursorjump,142.5,0,0,10,NA,0,NA,0,0,0.5,FALSE,practice,0,"[0.010417,0.010417,0.010417,0.010417,0.0125,0.0125,0.0125,0.0125,0.010417,0.008333,0.004167,0.002083,-0.002083,-0.002083,-0.002083,-0.002083,-0.002083,-0.002083,-0.002083,-0.002083,-0.002083,0,0,-0.002083,-0.00625,-0.0125,-0.03125,-0.041667,-0.06875,-0.102083,-0.145833,-0.172917,-0.233333,-0.264583,-0.3375,-0.416667,-0.497917,-0.539583,-0.625,-0.666667,-0.74375,-0.810417,-0.8625,-0.883333,-0.908333,-0.916667,-0.916667,-0.914583,-0.9125,-0.90625,-0.8875,-0.858333,-0.8375,-0.785417,-0.754167,-0.691667,-0.620833,-0.547917,-0.510417,-0.44375,-0.410417,-0.354167,-0.304167,-0.260417,-0.241667,-0.20625,-0.189583,-0.1625,-0.139583,-0.120833,-0.1125,-0.1,-0.09375,-0.0875,-0.083333,-0.079167,-0.077083,-0.072917,-0.070833,-0.066667,-0.0625,-0.058333,-0.05625,-0.05,-0.047917,-0.04375,-0.041667,-0.041667,-0.041667,-0.041667,-0.041667,-0.0375]","[-0.011111,-0.011111,-0.011111,-0.011111,-0.011111,-0.008,-0.008,-0.008,-0.008,-0.004889,0.001333,0.007556,0.013778,0.013778,0.016889,0.016889,0.013778,0.013778,0.013778,0.013778,0.013778,0.013778,0.013778,0.013778,0.016889,0.023111,0.035556,0.044889,0.063556,0.088444,0.119556,0.138222,0.178667,0.200444,0.247111,0.293778,0.337333,0.359111,0.402667,0.424444,0.471111,0.514667,0.555111,0.573778,0.595556,0.601778,0.601778,0.601778,0.601778,0.595556,0.586222,0.570667,0.561333,0.533333,0.517778,0.480444,0.433778,0.380889,0.356,0.306222,0.281333,0.237778,0.203556,0.172444,0.16,0.138222,0.128889,0.113333,0.097778,0.082222,0.072889,0.063556,0.057333,0.051111,0.048,0.044889,0.041778,0.038667,0.035556,0.032444,0.026222,0.023111,0.02,0.016889,0.013778,0.010667,0.010667,0.010667,0.010667,0.010667,0.010667,0.007556]","[0.0005,0.0169,0.0336,0.0498,0.0665,0.0833,0.0999,0.1169,0.1335,0.1499,0.1664,0.1832,0.2006,0.2168,0.2333,0.2501,0.2665,0.2831,0.3004,0.3167,0.3332,0.3502,0.3667,0.3832,0.4003,0.4172,0.4335,0.4508,0.4675,0.4841,0.5009,0.5174,0.5342,0.5511,0.5676,0.5842,0.601,0.6176,0.6342,0.6511,0.6676,0.6845,0.7029,0.7177,0.7345,0.7515,0.7678,0.7843,0.8014,0.8179,0.8346,0.8515,0.8681,0.8846,0.9016,0.918,0.9347,0.9516,0.9679,0.9846,1.0018,1.0183,1.0348,1.0517,1.0676,1.0843,1.1013,1.1175,1.1345,1.1513,1.1677,1.1844,1.2013,1.2177,1.2344,1.2515,1.2678,1.2847,1.3014,1.3181,1.3348,1.3515,1.3681,1.3846,1.4014,1.4182,1.4348,1.4515,1.468,1.4844,1.5013,1.5179]","[1,1,1,1,1,1,1,1,1,1,1,1,1,1,1,1,1,1,1,1,1,1,1,1,1,1,1,1,1,1,1,1,1,1,1,1,1,1,1,1,1,2,2,2,2,2,2,2,2,2,2,2,2,2,2,2,2,2,2,2,2,2,2,2,2,2,2,2,2,2,2,2,2,2,2,2,2,2,2,2,2,2,2,2,2,2,2,2,2,2,2,2]",16,88.0786,4,31,0,31,0,1,participnt2,4,SV_6SxWlNLsoRj8nqK,304B,2022-06-27_14h52.23.998,implicit_time,2021.1.4,Linux x86_64,59.95563283
cursorjump,135,0,0.5,10,NA,0,NA,0,1,0.5,FALSE,baseline,1,"[0.020833,0.020833,0.020833,0.020833,0.020833,0.020833,0.020833,0.020833,0.020833,0.020833,0.020833,0.020833,0.020833,0.020833,0.020833,0.020833,0.020833,0.020833,0.020833,0.020833,0.020833,0.020833,0.020833,0.020833,0.020833,0.020833,0.020833,0.016667,0.0125,0,-0.016667,-0.039583,-0.052083,-0.079167,-0.095833,-0.135417,-0.1875,-0.245833,-0.279167,-0.341667,-0.372917,-0.43125,-0.4875,-0.54375,-0.572917,-0.627083,-0.652083,-0.704167,-0.752083,-0.791667,-0.804167,-0.8125,-0.810417,-0.810417,-0.808333,-0.808333,-0.808333,-0.808333,-0.80625,-0.785417,-0.741667,-0.685417,-0.652083,-0.5875,-0.552083,-0.483333,-0.410417,-0.377083,-0.310417,-0.252083,-0.227083,-0.179167,-0.1375,-0.116667,-0.08125,-0.054167,-0.041667,-0.029167,-0.020833,-0.01875,-0.010417,0.002083,0.008333,0.025,0.04375,0.054167,0.064583,0.070833,0.072917,0.077083,0.08125,0.08125,0.083333,0.083333,0.083333,0.083333,0.08125,0.079167,0.077083,0.077083,0.075,0.075,0.072917,0.06875,0.0625,0.052083,0.047917,0.0375,0.03125]","[0.010667,0.010667,0.010667,0.010667,0.010667,0.010667,0.010667,0.010667,0.010667,0.010667,0.010667,0.010667,0.010667,0.010667,0.010667,0.010667,0.010667,0.010667,0.010667,0.010667,0.010667,0.010667,0.010667,0.010667,0.010667,0.010667,0.010667,0.013778,0.02,0.032444,0.054222,0.085333,0.104,0.141333,0.163111,0.203556,0.244,0.287556,0.312444,0.365333,0.396444,0.452444,0.508444,0.558222,0.58,0.617333,0.636,0.667111,0.692,0.713778,0.716889,0.72,0.72,0.72,0.716889,0.716889,0.716889,0.716889,0.716889,0.707556,0.682667,0.642222,0.620444,0.570667,0.548889,0.499111,0.449333,0.421333,0.368444,0.315556,0.287556,0.237778,0.188,0.166222,0.128889,0.100889,0.091556,0.079111,0.072889,0.069778,0.066667,0.060444,0.057333,0.044889,0.026222,0.016889,-0.001778,-0.014222,-0.017333,-0.020444,-0.023556,-0.026667,-0.026667,-0.026667,-0.026667,-0.026667,-0.026667,-0.026667,-0.026667,-0.026667,-0.026667,-0.026667,-0.026667,-0.026667,-0.026667,-0.023556,-0.023556,-0.020444,-0.017333]","[0.0005,0.018,0.033,0.0498,0.0662,0.0827,0.0989,0.1154,0.1322,0.1491,0.1652,0.1825,0.1996,0.2154,0.232,0.2495,0.2655,0.2821,0.2998,0.3157,0.3329,0.3498,0.3656,0.383,0.3999,0.4164,0.4332,0.4501,0.4663,0.4832,0.5012,0.5178,0.5335,0.5503,0.5667,0.5833,0.6,0.6169,0.6332,0.6505,0.6668,0.6834,0.7004,0.7169,0.7333,0.7506,0.7667,0.7835,0.8023,0.8171,0.8336,0.8503,0.8668,0.8833,0.9004,0.9168,0.9336,0.9503,0.9669,0.9836,1.0006,1.0169,1.0336,1.0505,1.0669,1.0836,1.1008,1.1171,1.1339,1.1511,1.1672,1.1839,1.2008,1.2172,1.2338,1.2508,1.2676,1.284,1.301,1.3175,1.3339,1.351,1.3676,1.3841,1.4012,1.4177,1.4341,1.451,1.4677,1.4843,1.5012,1.5176,1.5343,1.5512,1.5675,1.5841,1.6014,1.6183,1.6344,1.6513,1.6679,1.6844,1.7015,1.718,1.7345,1.7515,1.7681,1.7846,1.8013]","[1,1,1,1,1,1,1,1,1,1,1,1,1,1,1,1,1,1,1,1,1,1,1,1,1,1,1,1,1,1,1,1,1,1,1,1,1,1,1,1,1,1,1,1,1,1,1,2,2,2,2,2,2,2,2,2,2,2,2,2,2,2,2,2,2,2,2,2,2,2,2,2,2,2,2,2,2,2,2,2,2,2,2,2,2,2,2,2,2,2,2,2,2,2,2,2,2,2,2,2,2,2,2,2,2,2,2,2,2]",1,95.1373,4,32,0,32,0,1,participnt2,4,SV_6SxWlNLsoRj8nqK,304B,2022-06-27_14h52.23.998,implicit_time,2021.1.4,Linux x86_64,59.95563283
cursorjump,142.5,0,0,10,NA,0,NA,0,0,0.5,FALSE,baseline,0,"[0.00625,0.00625,0.00625,0.00625,0.00625,0.00625,0.00625,0.00625,0.00625,0.00625,0.00625,0.00625,0.00625,0.00625,0.00625,0.00625,0.00625,0.00625,0.00625,0.00625,0.00625,0.00625,0.004167,0.002083,-0.004167,-0.025,-0.060417,-0.083333,-0.13125,-0.185417,-0.214583,-0.279167,-0.354167,-0.395833,-0.472917,-0.54375,-0.577083,-0.645833,-0.710417,-0.741667,-0.795833,-0.84375,-0.8625,-0.88125,-0.883333,-0.883333,-0.88125,-0.88125,-0.877083,-0.86875,-0.835417,-0.810417,-0.745833,-0.672917,-0.597917,-0.560417,-0.485417,-0.447917,-0.38125,-0.31875,-0.289583,-0.2375,-0.189583,-0.16875,-0.127083,-0.110417,-0.075,-0.047917,-0.027083,-0.020833,-0.008333,-0.004167,0.004167,0.010417,0.0125,0.0125,0.0125,0.014583,0.014583,0.016667,0.020833,0.022917,0.027083,0.03125,0.035417,0.0375,0.039583]","[0.004444,0.004444,0.004444,0.004444,0.004444,0.004444,0.004444,0.004444,0.004444,0.004444,0.004444,0.004444,0.004444,0.004444,0.004444,0.004444,0.004444,0.004444,0.004444,0.004444,0.004444,0.004444,0.004444,0.004444,0.010667,0.026222,0.057333,0.076,0.122667,0.172444,0.197333,0.250222,0.303111,0.331111,0.393333,0.458667,0.486667,0.539556,0.576889,0.592444,0.620444,0.639111,0.645333,0.651556,0.648444,0.648444,0.648444,0.645333,0.642222,0.636,0.614222,0.595556,0.555111,0.508444,0.461778,0.44,0.393333,0.371556,0.328,0.290667,0.272,0.237778,0.206667,0.191111,0.163111,0.153778,0.132,0.113333,0.097778,0.094667,0.085333,0.082222,0.076,0.072889,0.069778,0.069778,0.069778,0.069778,0.066667,0.066667,0.060444,0.057333,0.051111,0.044889,0.035556,0.02,0.007556]","[0.0005,0.0174,0.0336,0.0499,0.0665,0.0834,0.0999,0.1167,0.1346,0.1495,0.1673,0.1833,0.2011,0.2175,0.2337,0.2505,0.2673,0.2839,0.2998,0.3172,0.3342,0.3505,0.3673,0.3841,0.4005,0.4173,0.4343,0.4523,0.4681,0.4847,0.5012,0.5182,0.5348,0.5515,0.568,0.5848,0.6017,0.618,0.6349,0.6516,0.6681,0.685,0.7016,0.719,0.735,0.752,0.7679,0.7852,0.8019,0.8193,0.8355,0.8523,0.8684,0.8852,0.9018,0.9186,0.9354,0.9517,0.9683,0.9855,1.0018,1.0184,1.0353,1.0513,1.068,1.0848,1.1016,1.1182,1.135,1.156,1.1684,1.185,1.2014,1.2184,1.235,1.2514,1.268,1.2853,1.3014,1.3184,1.3352,1.3515,1.3683,1.3853,1.4016,1.4186,1.4355]","[1,1,1,1,1,1,1,1,1,1,1,1,1,1,1,1,1,1,1,1,1,1,1,1,1,1,1,1,1,1,1,1,1,1,1,1,1,1,1,1,2,2,2,2,2,2,2,2,2,2,2,2,2,2,2,2,2,2,2,2,2,2,2,2,2,2,2,2,2,2,2,2,2,2,2,2,2,2,2,2,2,2,2,2,2,2,2]",1,97.0899,4,33,0,33,0,1,participnt2,4,SV_6SxWlNLsoRj8nqK,304B,2022-06-27_14h52.23.998,implicit_time,2021.1.4,Linux x86_64,59.95563283
cursorjump,105,0,0.5,10,NA,0,NA,0,1,0.5,FALSE,baseline,1,"[0,0,0,0,0,0,0,0,0,0,0,0,0,0,0,0,0,0,0,0,0,0,-0.002083,-0.00625,-0.0125,-0.014583,-0.022917,-0.027083,-0.039583,-0.060417,-0.091667,-0.108333,-0.14375,-0.160417,-0.195833,-0.235417,-0.279167,-0.302083,-0.345833,-0.379167,-0.389583,-0.402083,-0.414583,-0.420833,-0.427083,-0.427083,-0.427083,-0.425,-0.4125,-0.404167,-0.38125,-0.366667,-0.335417,-0.297917,-0.25625,-0.235417,-0.19375,-0.172917,-0.133333,-0.091667,-0.054167,-0.0375,-0.00625,0.00625,0.03125,0.05,0.066667,0.072917,0.08125,0.085417,0.089583,0.091667,0.091667,0.089583,0.083333,0.079167,0.072917,0.064583,0.060417,0.054167,0.05,0.047917,0.045833,0.04375,0.041667,0.039583,0.0375,0.0375,0.035417,0.035417,0.035417,0.035417]","[-0.011111,-0.011111,-0.011111,-0.011111,-0.011111,-0.011111,-0.011111,-0.011111,-0.011111,-0.011111,-0.011111,-0.011111,-0.011111,-0.011111,-0.011111,-0.011111,-0.011111,-0.011111,-0.011111,-0.011111,-0.011111,-0.011111,-0.004889,0.010667,0.041778,0.063556,0.119556,0.153778,0.231556,0.318667,0.415111,0.464889,0.564444,0.611111,0.698222,0.776,0.841333,0.872444,0.925333,0.962667,0.965778,0.962667,0.956444,0.953333,0.950222,0.950222,0.947111,0.947111,0.940889,0.931556,0.900444,0.881778,0.838222,0.788444,0.732444,0.704444,0.645333,0.617333,0.555111,0.492889,0.433778,0.402667,0.346667,0.321778,0.272,0.234667,0.203556,0.191111,0.172444,0.166222,0.16,0.153778,0.153778,0.150667,0.144444,0.141333,0.132,0.122667,0.116444,0.104,0.088444,0.082222,0.066667,0.054222,0.044889,0.035556,0.029333,0.026222,0.023111,0.023111,0.023111,0.02]","[0.0005,0.0159,0.0321,0.048,0.0645,0.0817,0.0979,0.1149,0.1311,0.148,0.1643,0.1815,0.198,0.2146,0.2316,0.2485,0.265,0.2816,0.2989,0.3151,0.3319,0.3489,0.3655,0.382,0.3992,0.4153,0.432,0.4496,0.4655,0.482,0.499,0.5156,0.5322,0.5491,0.5655,0.5824,0.5991,0.6155,0.6322,0.651,0.6659,0.6825,0.6994,0.7157,0.7323,0.7491,0.766,0.7827,0.7993,0.816,0.8326,0.8495,0.8658,0.8829,0.8994,0.9157,0.9326,0.9496,0.9659,0.9826,1.0004,1.0159,1.0329,1.0497,1.0661,1.0828,1.0996,1.1162,1.1329,1.1498,1.1665,1.1829,1.1999,1.2162,1.2332,1.2499,1.2663,1.2834,1.3,1.3162,1.3335,1.3502,1.3669,1.3834,1.4,1.4165,1.4331,1.4502,1.4667,1.484,1.5003,1.5168]","[1,1,1,1,1,1,1,1,1,1,1,1,1,1,1,1,1,1,1,1,1,1,1,1,1,1,1,1,1,1,1,1,1,1,1,1,1,1,2,2,2,2,2,2,2,2,2,2,2,2,2,2,2,2,2,2,2,2,2,2,2,2,2,2,2,2,2,2,2,2,2,2,2,2,2,2,2,2,2,2,2,2,2,2,2,2,2,2,2,2,2,2]",2,99.1587,4,34,0,34,0,1,participnt2,4,SV_6SxWlNLsoRj8nqK,304B,2022-06-27_14h52.23.998,implicit_time,2021.1.4,Linux x86_64,59.95563283
cursorjump,112.5,0,0,10,NA,0,NA,0,0,0.5,FALSE,baseline,0,"[0.029167,0.029167,0.029167,0.029167,0.029167,0.029167,0.029167,0.029167,0.029167,0.029167,0.029167,0.029167,0.029167,0.029167,0.029167,0.029167,0.029167,0.029167,0.029167,0.029167,0.029167,0.029167,0.029167,0.022917,0.01875,0.00625,-0.0125,-0.039583,-0.05625,-0.091667,-0.129167,-0.147917,-0.189583,-0.233333,-0.258333,-0.30625,-0.35,-0.370833,-0.402083,-0.414583,-0.414583,-0.416667,-0.420833,-0.422917,-0.425,-0.429167,-0.420833,-0.4125,-0.385417,-0.370833,-0.3375,-0.297917,-0.258333,-0.239583,-0.202083,-0.185417,-0.154167,-0.127083,-0.1,-0.085417,-0.060417,-0.05,-0.03125,-0.014583,-0.00625,0.008333,0.020833,0.025,0.03125,0.035417,0.0375,0.041667,0.047917,0.05,0.054167,0.058333,0.060417,0.064583,0.066667,0.066667,0.066667,0.064583,0.0625,0.060417,0.05625,0.052083,0.041667,0.029167,0.01875]","[0.001333,0.001333,0.001333,0.001333,0.001333,0.001333,0.001333,0.001333,0.001333,0.001333,0.001333,0.001333,0.001333,0.001333,0.001333,0.001333,0.001333,0.001333,0.001333,0.001333,0.001333,0.004444,0.007556,0.023111,0.035556,0.066667,0.110222,0.166222,0.200444,0.281333,0.371556,0.421333,0.527111,0.626667,0.676444,0.766667,0.844444,0.881778,0.937778,0.959556,0.959556,0.956444,0.953333,0.953333,0.950222,0.947111,0.931556,0.916,0.866222,0.838222,0.779111,0.716889,0.654667,0.623556,0.561333,0.527111,0.468,0.418222,0.371556,0.352889,0.312444,0.296889,0.265778,0.237778,0.225333,0.203556,0.184889,0.178667,0.169333,0.163111,0.16,0.153778,0.147556,0.141333,0.132,0.122667,0.119556,0.110222,0.097778,0.091556,0.079111,0.069778,0.066667,0.060444,0.054222,0.051111,0.044889,0.041778,0.035556]","[0.0004,0.0174,0.0332,0.05,0.066,0.0831,0.0996,0.1169,0.1328,0.1496,0.1662,0.1832,0.1999,0.217,0.2333,0.2499,0.2667,0.2832,0.3003,0.3169,0.3336,0.3501,0.367,0.3836,0.4002,0.417,0.4343,0.4509,0.4677,0.4842,0.5011,0.5188,0.5344,0.5513,0.5678,0.5843,0.6011,0.6186,0.6346,0.6512,0.6679,0.684,0.7014,0.718,0.7352,0.7514,0.7682,0.7847,0.8017,0.8181,0.8353,0.8514,0.8682,0.8847,0.9014,0.9181,0.9349,0.952,0.9682,0.9846,1.0008,1.0177,1.0342,1.051,1.0678,1.0843,1.1009,1.1179,1.1342,1.1509,1.168,1.1843,1.2009,1.2178,1.2343,1.2511,1.2681,1.2861,1.3019,1.3184,1.3349,1.3515,1.3682,1.3849,1.4013,1.4181,1.4349,1.4529,1.4686]","[1,1,1,1,1,1,1,1,1,1,1,1,1,1,1,1,1,1,1,1,1,1,1,1,1,1,1,1,1,1,1,1,1,1,1,1,1,1,2,2,2,2,2,2,2,2,2,2,2,2,2,2,2,2,2,2,2,2,2,2,2,2,2,2,2,2,2,2,2,2,2,2,2,2,2,2,2,2,2,2,2,2,2,2,2,2,2,2,2]",2,101.1448,4,35,0,35,0,1,participnt2,4,SV_6SxWlNLsoRj8nqK,304B,2022-06-27_14h52.23.998,implicit_time,2021.1.4,Linux x86_64,59.95563283
cursorjump,75,0,0.5,10,NA,0,NA,0,1,0.5,FALSE,baseline,1,"[-0.002083,-0.002083,-0.002083,-0.002083,-0.002083,-0.002083,-0.002083,-0.002083,-0.002083,-0.002083,-0.002083,-0.002083,-0.002083,-0.002083,-0.002083,-0.002083,-0.002083,-0.004167,-0.00625,-0.00625,-0.00625,-0.002083,0.008333,0.01875,0.045833,0.0875,0.110417,0.160417,0.216667,0.245833,0.308333,0.3625,0.385417,0.416667,0.427083,0.422917,0.408333,0.4,0.395833,0.395833,0.391667,0.389583,0.377083,0.366667,0.329167,0.285417,0.241667,0.220833,0.18125,0.1625,0.127083,0.09375,0.06875,0.058333,0.041667,0.035417,0.027083,0.020833,0.016667,0.016667,0.014583,0.014583,0.014583,0.014583,0.016667,0.016667,0.016667,0.016667,0.016667,0.01875,0.022917]","[0.029333,0.029333,0.029333,0.029333,0.029333,0.029333,0.029333,0.029333,0.029333,0.029333,0.029333,0.029333,0.029333,0.029333,0.029333,0.029333,0.029333,0.029333,0.038667,0.054222,0.063556,0.094667,0.138222,0.166222,0.231556,0.309333,0.349778,0.44,0.536444,0.586222,0.685778,0.779111,0.819556,0.897333,0.934667,0.940889,0.944,0.947111,0.950222,0.950222,0.950222,0.947111,0.931556,0.916,0.863111,0.791556,0.710667,0.670222,0.589333,0.545778,0.464889,0.387111,0.315556,0.284444,0.231556,0.206667,0.169333,0.138222,0.113333,0.100889,0.082222,0.072889,0.060444,0.054222,0.051111,0.048,0.048,0.048,0.044889,0.038667,0.026222]","[0.0005,0.0167,0.033,0.0497,0.0658,0.0829,0.0991,0.1156,0.1329,0.1491,0.1659,0.1824,0.1992,0.2159,0.2325,0.2499,0.2665,0.2835,0.3002,0.3171,0.3332,0.3503,0.367,0.3835,0.4005,0.4167,0.4335,0.4505,0.4669,0.4836,0.5005,0.517,0.5336,0.5505,0.5691,0.5896,0.6019,0.6191,0.6364,0.6512,0.6674,0.6841,0.7007,0.7171,0.7339,0.7508,0.7675,0.7839,0.8013,0.8174,0.834,0.8508,0.8678,0.884,0.9011,0.9172,0.934,0.951,0.9676,0.9841,1.001,1.0173,1.0341,1.0511,1.0676,1.0842,1.1012,1.1192,1.1343,1.1513,1.1676]","[1,1,1,1,1,1,1,1,1,1,1,1,1,1,1,1,1,1,1,1,1,1,1,1,1,1,1,1,1,1,1,1,1,2,2,2,2,2,2,2,2,2,2,2,2,2,2,2,2,2,2,2,2,2,2,2,2,2,2,2,2,2,2,2,2,2,2,2,2,2,2]",3,102.8297,4,36,0,36,0,1,participnt2,4,SV_6SxWlNLsoRj8nqK,304B,2022-06-27_14h52.23.998,implicit_time,2021.1.4,Linux x86_64,59.95563283
cursorjump,67.5,0,0,10,NA,0,NA,0,0,0.5,FALSE,baseline,0,"[-0.004167,-0.004167,-0.004167,-0.004167,-0.004167,-0.004167,-0.004167,-0.004167,-0.004167,-0.004167,-0.002083,-0.002083,0,0.002083,0.002083,0.004167,0.00625,0.00625,0.00625,0.00625,0.00625,0.00625,0.00625,0.00625,0.010417,0.025,0.052083,0.070833,0.108333,0.127083,0.166667,0.2125,0.277083,0.314583,0.402083,0.44375,0.491667,0.495833,0.49375,0.49375,0.491667,0.491667,0.4875,0.470833,0.435417,0.410417,0.35625,0.329167,0.279167,0.229167,0.179167,0.154167,0.110417,0.089583,0.058333,0.033333,0.0125,0.004167,-0.0125,-0.016667]","[0.007556,0.007556,0.007556,0.007556,0.007556,0.007556,0.007556,0.004444,0.004444,0.004444,0.004444,0.001333,-0.001778,-0.001778,-0.001778,-0.004889,-0.004889,-0.004889,-0.004889,-0.004889,-0.004889,-0.004889,-0.004889,-0.004889,0.007556,0.038667,0.088444,0.122667,0.200444,0.244,0.334222,0.44,0.564444,0.632889,0.766667,0.828889,0.900444,0.909778,0.909778,0.909778,0.909778,0.909778,0.906667,0.891111,0.850667,0.822667,0.757333,0.72,0.645333,0.567556,0.480444,0.436889,0.346667,0.303111,0.228444,0.166222,0.110222,0.088444,0.044889,0.029333]","[0.0007,0.0181,0.033,0.0497,0.0665,0.0829,0.1002,0.1173,0.1337,0.1505,0.1675,0.184,0.2005,0.2175,0.2339,0.2507,0.2676,0.2841,0.3005,0.3174,0.3341,0.3506,0.3674,0.3836,0.4008,0.4176,0.4347,0.4513,0.4682,0.4847,0.5023,0.5184,0.535,0.5514,0.5684,0.5851,0.6024,0.6187,0.6353,0.6517,0.6681,0.685,0.7012,0.7186,0.7352,0.752,0.7687,0.7851,0.8019,0.8186,0.8354,0.8521,0.8686,0.8852,0.9015,0.9182,0.9349,0.9516,0.9682,0.9848]","[1,1,1,1,1,1,1,1,1,1,1,1,1,1,1,1,1,1,1,1,1,1,1,1,1,1,1,1,1,1,1,1,1,1,1,1,2,2,2,2,2,2,2,2,2,2,2,2,2,2,2,2,2,2,2,2,2,2,2,2]",3,105.6832,4,37,0,37,0,1,participnt2,4,SV_6SxWlNLsoRj8nqK,304B,2022-06-27_14h52.23.998,implicit_time,2021.1.4,Linux x86_64,59.95563283
