condition_label,target,rotation_deg,cursorjump,targetjump,arrow_offset,aiming_target,aiming_direction,aiming_type,feedback_type,hold_duration,hold_target,phase,trialtype,mousex_rel,mousey_rel,mouse_time,step,points,cumulativetime,version,trials.thisRepN,trials.thisTrialN,trials.thisN,trials.thisIndex,trials.ran,participant,condition,qualtrics,group,date,expName,psychopyVersion,OS,frameRate
cursorjump,135,0,0.5,10,NA,0,NA,0,1,0.5,FALSE,practice,1,"[-0.00625,-0.004167,-0.004167,-0.004167,-0.004167,-0.004167,-0.004167,-0.002083,-0.002083,0,0.002083,0.004167,0.004167,0.004167,0.004167,0.004167,0.004167,0.004167,0.004167,0.004167,0.004167,0.004167,0.004167,0.004167,0.004167,0.004167,0.00625,0.00625,0.00625,0.00625,0.00625,0.00625,0.002083,-0.002083,-0.0125,-0.029167,-0.039583,-0.060417,-0.070833,-0.09375,-0.120833,-0.152083,-0.16875,-0.20625,-0.225,-0.260417,-0.295833,-0.335417,-0.354167,-0.391667,-0.410417,-0.445833,-0.477083,-0.50625,-0.51875,-0.541667,-0.554167,-0.572917,-0.589583,-0.60625,-0.6125,-0.625,-0.629167,-0.6375,-0.65,-0.6625,-0.672917,-0.69375,-0.71875,-0.729167,-0.741667,-0.74375,-0.74375,-0.74375,-0.74375,-0.74375,-0.74375,-0.74375,-0.739583,-0.729167,-0.7125,-0.702083,-0.683333,-0.666667,-0.65625,-0.639583,-0.622917,-0.614583,-0.595833,-0.572917,-0.558333,-0.527083,-0.49375,-0.475,-0.439583,-0.408333,-0.39375,-0.36875,-0.358333,-0.3375,-0.31875,-0.304167,-0.297917,-0.2875,-0.277083,-0.275,-0.26875,-0.264583,-0.25625,-0.24375,-0.225,-0.2125,-0.1875,-0.175,-0.154167,-0.1375,-0.122917,-0.114583,-0.1,-0.09375,-0.08125,-0.06875,-0.054167,-0.045833,-0.029167,-0.01875,-0.004167]","[-0.011111,-0.011111,-0.011111,-0.011111,-0.008,-0.008,-0.008,-0.008,-0.008,-0.008,-0.011111,-0.011111,-0.011111,-0.011111,-0.011111,-0.011111,-0.011111,-0.011111,-0.011111,-0.011111,-0.011111,-0.011111,-0.011111,-0.011111,-0.011111,-0.011111,-0.014222,-0.014222,-0.014222,-0.014222,-0.014222,-0.014222,-0.014222,-0.014222,-0.014222,-0.011111,-0.008,0.001333,0.007556,0.023111,0.038667,0.057333,0.069778,0.091556,0.107111,0.135111,0.169333,0.206667,0.225333,0.268889,0.290667,0.337333,0.384,0.427556,0.449333,0.492889,0.511556,0.552,0.586222,0.617333,0.632889,0.660889,0.676444,0.698222,0.72,0.738667,0.748,0.763556,0.772889,0.776,0.776,0.776,0.772889,0.772889,0.772889,0.772889,0.772889,0.772889,0.766667,0.751111,0.729333,0.713778,0.685778,0.654667,0.636,0.595556,0.548889,0.527111,0.480444,0.436889,0.418222,0.380889,0.343556,0.321778,0.284444,0.253333,0.234667,0.203556,0.188,0.16,0.141333,0.132,0.128889,0.132,0.132,0.135111,0.138222,0.141333,0.141333,0.138222,0.132,0.128889,0.125778,0.122667,0.113333,0.104,0.094667,0.091556,0.085333,0.079111,0.072889,0.063556,0.054222,0.048,0.041778,0.038667,0.038667]","[0.0009,0.0305,0.0368,0.0481,0.0649,0.0811,0.0981,0.1149,0.1314,0.1483,0.1651,0.1815,0.1982,0.2147,0.2315,0.2481,0.2649,0.2815,0.298,0.3149,0.3315,0.3483,0.365,0.3815,0.3985,0.415,0.4318,0.4482,0.4648,0.4817,0.498,0.5149,0.5316,0.5486,0.5654,0.5817,0.5982,0.6152,0.6319,0.6485,0.665,0.6819,0.6988,0.7153,0.7317,0.7483,0.7653,0.782,0.7988,0.8152,0.8321,0.8489,0.8654,0.8818,0.8985,0.9151,0.932,0.9488,0.9654,0.9818,0.9993,1.0157,1.0322,1.0492,1.0657,1.0824,1.0998,1.116,1.1329,1.1492,1.165,1.1819,1.1994,1.2159,1.2323,1.2489,1.2656,1.2823,1.2992,1.316,1.3324,1.3493,1.3654,1.3829,1.3996,1.416,1.4327,1.4495,1.4665,1.4831,1.4997,1.5152,1.5331,1.5495,1.5654,1.5831,1.5985,1.6157,1.6323,1.649,1.6656,1.6822,1.6989,1.7157,1.7322,1.7489,1.7657,1.7823,1.7996,1.8157,1.8326,1.8492,1.8658,1.8824,1.899,1.9157,1.9325,1.9493,1.9659,1.9825,1.9992,2.016,2.0326,2.0495,2.066,2.0826,2.0994]","[1,1,1,1,1,1,1,1,1,1,1,1,1,1,1,1,1,1,1,1,1,1,1,1,1,1,1,1,1,1,1,1,1,1,1,1,1,1,1,1,1,1,1,1,1,1,1,1,1,1,1,1,1,1,1,1,1,1,1,1,1,1,1,1,2,2,2,2,2,2,2,2,2,2,2,2,2,2,2,2,2,2,2,2,2,2,2,2,2,2,2,2,2,2,2,2,2,2,2,2,2,2,2,2,2,2,2,2,2,2,2,2,2,2,2,2,2,2,2,2,2,2,2,2,2,2,2]",1,10.2055,4,0,0,0,0,1,Zeenat,4,SV_6SxWlNLsoRj8nqK,304B,2022-06-17_15h03.05.787,implicit_time,2021.1.4,Linux x86_64,59.95563283
cursorjump,127.5,0,0,10,NA,0,NA,0,0,0.5,FALSE,practice,0,"[-0.00625,-0.008333,-0.008333,-0.010417,-0.010417,-0.010417,-0.010417,-0.010417,-0.010417,-0.010417,-0.010417,-0.010417,-0.010417,-0.0125,-0.0125,-0.016667,-0.016667,-0.020833,-0.022917,-0.025,-0.027083,-0.033333,-0.0375,-0.047917,-0.064583,-0.075,-0.097917,-0.125,-0.139583,-0.170833,-0.202083,-0.21875,-0.245833,-0.272917,-0.283333,-0.30625,-0.327083,-0.339583,-0.3625,-0.39375,-0.410417,-0.447917,-0.483333,-0.5,-0.527083,-0.552083,-0.5625,-0.579167,-0.59375,-0.6,-0.610417,-0.616667,-0.616667,-0.616667,-0.616667,-0.616667,-0.61875,-0.61875,-0.61875,-0.616667,-0.610417,-0.608333,-0.597917,-0.585417,-0.570833,-0.5625,-0.541667,-0.53125,-0.510417,-0.4875,-0.475,-0.447917,-0.422917,-0.408333,-0.38125,-0.354167,-0.339583,-0.3125,-0.2875,-0.277083,-0.25625,-0.239583,-0.23125,-0.214583,-0.202083,-0.195833,-0.185417,-0.179167,-0.16875,-0.160417,-0.154167,-0.154167,-0.152083,-0.15,-0.15,-0.145833,-0.141667,-0.1375,-0.129167,-0.125,-0.1125,-0.1,-0.08125,-0.072917,-0.052083,-0.04375,-0.029167,-0.022917,-0.020833,-0.020833,-0.020833]","[-0.011111,-0.008,-0.008,-0.008,-0.008,-0.008,-0.008,-0.008,-0.008,-0.008,-0.008,-0.008,-0.008,-0.008,-0.008,-0.008,-0.008,-0.008,-0.008,-0.008,-0.004889,0.004444,0.007556,0.023111,0.041778,0.051111,0.076,0.104,0.119556,0.153778,0.191111,0.209778,0.247111,0.281333,0.3,0.340444,0.384,0.405778,0.452444,0.499111,0.520889,0.564444,0.608,0.626667,0.670222,0.710667,0.732444,0.772889,0.807111,0.825778,0.853778,0.863111,0.863111,0.86,0.86,0.86,0.86,0.86,0.86,0.853778,0.835111,0.822667,0.791556,0.760444,0.723111,0.701333,0.657778,0.636,0.589333,0.545778,0.520889,0.477333,0.430667,0.408889,0.368444,0.324889,0.306222,0.268889,0.237778,0.222222,0.194222,0.166222,0.153778,0.132,0.113333,0.107111,0.091556,0.082222,0.069778,0.057333,0.044889,0.041778,0.035556,0.032444,0.026222,0.023111,0.02,0.02,0.02,0.02,0.026222,0.029333,0.032444,0.032444,0.032444,0.035556,0.035556,0.038667,0.038667,0.038667,0.035556]","[0.0007,0.0162,0.0319,0.0489,0.0655,0.0819,0.0987,0.1157,0.1325,0.1488,0.1655,0.1825,0.1994,0.2161,0.2325,0.2493,0.2659,0.2825,0.2989,0.3159,0.3341,0.3492,0.3655,0.3823,0.3996,0.4164,0.4331,0.4491,0.4658,0.4824,0.4996,0.5166,0.533,0.5499,0.5661,0.5826,0.6004,0.6171,0.6328,0.6494,0.6665,0.6827,0.6997,0.7165,0.733,0.7496,0.7667,0.7826,0.8002,0.8169,0.8338,0.8495,0.8661,0.8823,0.8993,0.9158,0.9333,0.9498,0.9658,0.9835,0.9997,1.0156,1.0327,1.0494,1.069,1.0833,1.1013,1.1166,1.1329,1.1495,1.1662,1.1836,1.1993,1.216,1.2328,1.2495,1.2662,1.2828,1.2998,1.3163,1.3332,1.3497,1.3666,1.383,1.3999,1.4168,1.4331,1.4499,1.4666,1.4832,1.4999,1.5173,1.5332,1.5503,1.5665,1.5833,1.5999,1.6166,1.6332,1.6502,1.6667,1.6835,1.7,1.7168,1.7334,1.7501,1.7668,1.7836,1.8001,1.8168,1.8335]","[1,1,1,1,1,1,1,1,1,1,1,1,1,1,1,1,1,1,1,1,1,1,1,1,1,1,1,1,1,1,1,1,1,1,1,1,1,1,1,1,1,1,1,1,1,1,1,2,2,2,2,2,2,2,2,2,2,2,2,2,2,2,2,2,2,2,2,2,2,2,2,2,2,2,2,2,2,2,2,2,2,2,2,2,2,2,2,2,2,2,2,2,2,2,2,2,2,2,2,2,2,2,2,2,2,2,2,2,2,2,2]",1,12.556,4,1,0,1,0,1,Zeenat,4,SV_6SxWlNLsoRj8nqK,304B,2022-06-17_15h03.05.787,implicit_time,2021.1.4,Linux x86_64,59.95563283
cursorjump,105,0,0.5,10,NA,0,NA,0,1,0.5,FALSE,practice,1,"[-0.0125,-0.0125,-0.0125,-0.0125,-0.0125,-0.010417,-0.010417,-0.008333,-0.00625,-0.004167,-0.002083,0,0.002083,0.00625,0.008333,0.008333,0.010417,0.010417,0.010417,0.010417,0.008333,0.008333,0.00625,0,-0.002083,-0.010417,-0.01875,-0.025,-0.039583,-0.054167,-0.072917,-0.083333,-0.102083,-0.114583,-0.135417,-0.158333,-0.177083,-0.1875,-0.204167,-0.2125,-0.229167,-0.241667,-0.254167,-0.260417,-0.266667,-0.270833,-0.275,-0.277083,-0.275,-0.272917,-0.26875,-0.266667,-0.266667,-0.266667,-0.266667,-0.266667,-0.264583,-0.264583,-0.260417,-0.25625,-0.254167,-0.254167,-0.25625,-0.25625,-0.258333,-0.260417,-0.258333,-0.25625,-0.252083,-0.25,-0.24375,-0.233333,-0.222917,-0.216667,-0.208333,-0.204167,-0.195833,-0.189583,-0.185417,-0.183333,-0.177083,-0.172917,-0.164583,-0.154167,-0.147917,-0.1375,-0.127083,-0.122917,-0.1125,-0.104167,-0.1,-0.091667,-0.08125,-0.077083,-0.06875,-0.060417,-0.058333,-0.05,-0.041667,-0.035417]","[0.02,0.02,0.02,0.02,0.02,0.02,0.02,0.016889,0.013778,0.013778,0.010667,0.007556,0.007556,0.004444,0.004444,0.004444,0.004444,0.004444,0.004444,0.004444,0.004444,0.004444,0.007556,0.007556,0.010667,0.016889,0.032444,0.041778,0.066667,0.104,0.150667,0.175556,0.231556,0.259556,0.318667,0.371556,0.424444,0.449333,0.496,0.520889,0.573778,0.623556,0.676444,0.698222,0.744889,0.766667,0.813333,0.856889,0.900444,0.919111,0.956444,0.972,0.993778,1,1,1,1,1,0.990667,0.965778,0.928444,0.906667,0.863111,0.844444,0.800889,0.754222,0.701333,0.673333,0.620444,0.592444,0.539556,0.489778,0.44,0.415111,0.368444,0.346667,0.306222,0.265778,0.228444,0.212889,0.178667,0.166222,0.141333,0.119556,0.113333,0.097778,0.082222,0.079111,0.069778,0.063556,0.057333,0.051111,0.041778,0.035556,0.029333,0.023111,0.02,0.013778,0.007556,0.007556]","[0.0007,0.0162,0.0324,0.0491,0.0656,0.0831,0.0994,0.1165,0.1331,0.1495,0.1664,0.1829,0.1993,0.2162,0.2329,0.2505,0.2665,0.2827,0.3002,0.3161,0.3331,0.3498,0.3663,0.3832,0.3997,0.4164,0.433,0.4496,0.4664,0.483,0.4997,0.5163,0.5331,0.5499,0.5666,0.5834,0.5999,0.6166,0.6334,0.6501,0.6668,0.6833,0.7,0.7168,0.7337,0.75,0.7663,0.783,0.7998,0.8164,0.8353,0.8498,0.8669,0.8829,0.8999,0.9165,0.9335,0.9499,0.9675,0.9838,0.9997,1.0166,1.0339,1.0501,1.0669,1.0835,1.1,1.1169,1.1335,1.1502,1.1669,1.1835,1.2003,1.2169,1.2336,1.2502,1.2669,1.2836,1.3003,1.3168,1.3335,1.3503,1.3671,1.3838,1.4003,1.417,1.4337,1.4505,1.4671,1.4837,1.5005,1.517,1.5337,1.5505,1.5673,1.5839,1.6005,1.6172,1.6339,1.6507]","[1,1,1,1,1,1,1,1,1,1,1,1,1,1,1,1,1,1,1,1,1,1,1,1,1,1,1,1,1,1,1,1,1,1,1,1,1,1,1,1,1,1,1,1,1,1,1,1,1,2,2,2,2,2,2,2,2,2,2,2,2,2,2,2,2,2,2,2,2,2,2,2,2,2,2,2,2,2,2,2,2,2,2,2,2,2,2,2,2,2,2,2,2,2,2,2,2,2,2,2]",2,14.7244,4,2,0,2,0,1,Zeenat,4,SV_6SxWlNLsoRj8nqK,304B,2022-06-17_15h03.05.787,implicit_time,2021.1.4,Linux x86_64,59.95563283
cursorjump,97.5,0,0,10,NA,0,NA,0,0,0.5,FALSE,practice,0,"[0.00625,0.00625,0.00625,0.00625,0.00625,0.00625,0.00625,0.00625,0.00625,0.00625,0.00625,0.00625,0.00625,0.00625,0.00625,0.00625,0.004167,0.004167,0.004167,0,-0.002083,-0.00625,-0.010417,-0.016667,-0.027083,-0.0375,-0.04375,-0.05625,-0.064583,-0.08125,-0.097917,-0.1125,-0.11875,-0.129167,-0.135417,-0.14375,-0.15,-0.15,-0.145833,-0.1375,-0.133333,-0.125,-0.122917,-0.122917,-0.122917,-0.125,-0.125,-0.127083,-0.127083,-0.127083,-0.127083,-0.125,-0.122917,-0.114583,-0.114583,-0.114583,-0.116667,-0.11875,-0.11875,-0.11875,-0.11875,-0.116667,-0.114583,-0.1125,-0.1125,-0.108333,-0.108333,-0.10625,-0.104167,-0.102083,-0.1,-0.095833,-0.089583,-0.083333,-0.079167,-0.070833,-0.064583,-0.052083,-0.04375,-0.0375,-0.035417,-0.033333,-0.03125]","[-0.014222,-0.014222,-0.014222,-0.014222,-0.014222,-0.014222,-0.014222,-0.014222,-0.014222,-0.014222,-0.014222,-0.014222,-0.014222,-0.014222,-0.014222,-0.014222,-0.014222,-0.014222,-0.014222,-0.011111,-0.008,-0.001778,0.001333,0.016889,0.038667,0.069778,0.091556,0.138222,0.163111,0.219111,0.278222,0.337333,0.365333,0.424444,0.455556,0.517778,0.586222,0.657778,0.692,0.760444,0.794667,0.86,0.919111,0.975111,0.993778,1.015556,1.015556,1.015556,1.015556,1.015556,1.015556,1.012444,1.009333,0.959556,0.934667,0.878667,0.850667,0.794667,0.769778,0.713778,0.657778,0.601778,0.573778,0.520889,0.496,0.446222,0.399556,0.356,0.334222,0.290667,0.272,0.234667,0.203556,0.175556,0.163111,0.135111,0.122667,0.097778,0.076,0.057333,0.048,0.029333,0.02]","[0.0007,0.0165,0.0319,0.0492,0.0661,0.0826,0.0994,0.1154,0.1328,0.1491,0.1664,0.1834,0.1999,0.2159,0.233,0.2494,0.2659,0.2826,0.2997,0.3164,0.3325,0.3492,0.3661,0.3826,0.3994,0.4164,0.4335,0.4499,0.4668,0.4838,0.5,0.5169,0.5334,0.5499,0.567,0.5835,0.6002,0.6169,0.6335,0.6502,0.6708,0.6834,0.7001,0.7169,0.7337,0.7501,0.7671,0.7834,0.8003,0.8168,0.8328,0.8499,0.8669,0.8899,0.9004,0.9211,0.9349,0.9505,0.9671,0.984,1.0004,1.0172,1.0335,1.0503,1.0674,1.0847,1.1002,1.1172,1.1336,1.1501,1.1668,1.1834,1.2001,1.2168,1.2335,1.25,1.267,1.2835,1.3019,1.3175,1.3333,1.3504,1.3671]","[1,1,1,1,1,1,1,1,1,1,1,1,1,1,1,1,1,1,1,1,1,1,1,1,1,1,1,1,1,1,1,1,1,1,1,1,1,1,1,1,1,1,1,2,2,2,2,2,2,2,2,2,2,2,2,2,2,2,2,2,2,2,2,2,2,2,2,2,2,2,2,2,2,2,2,2,2,2,2,2,2,2,2]",2,16.6091,4,3,0,3,0,1,Zeenat,4,SV_6SxWlNLsoRj8nqK,304B,2022-06-17_15h03.05.787,implicit_time,2021.1.4,Linux x86_64,59.95563283
cursorjump,45,0,0.5,10,NA,0,NA,0,1,0.5,FALSE,practice,1,"[-0.004167,-0.004167,-0.004167,-0.004167,-0.004167,-0.00625,-0.00625,-0.00625,-0.00625,-0.00625,-0.00625,-0.00625,-0.00625,-0.00625,-0.008333,-0.008333,-0.010417,-0.0125,-0.0125,-0.014583,-0.014583,-0.0125,-0.008333,0.002083,0.010417,0.033333,0.05,0.091667,0.14375,0.177083,0.25,0.333333,0.377083,0.464583,0.55,0.589583,0.6625,0.727083,0.76875,0.779167,0.779167,0.779167,0.779167,0.779167,0.779167,0.777083,0.76875,0.7625,0.741667,0.716667,0.702083,0.670833,0.635417,0.61875,0.58125,0.54375,0.522917,0.479167,0.433333,0.410417,0.3625,0.31875,0.297917,0.260417,0.229167,0.214583,0.189583,0.16875,0.1625,0.147917,0.139583,0.135417,0.129167,0.122917,0.120833,0.1125,0.102083,0.097917,0.085417,0.072917,0.066667,0.05625,0.047917,0.04375,0.0375,0.03125,0.029167,0.025,0.022917,0.022917,0.022917,0.022917,0.025,0.025,0.025,0.025,0.025,0.022917,0.020833,0.01875,0.014583]","[0.004444,0.004444,0.004444,0.004444,0.004444,0.004444,0.007556,0.007556,0.007556,0.007556,0.007556,0.007556,0.007556,0.007556,0.007556,0.007556,0.007556,0.007556,0.010667,0.013778,0.016889,0.026222,0.044889,0.069778,0.088444,0.125778,0.147556,0.197333,0.253333,0.284444,0.349778,0.418222,0.452444,0.520889,0.58,0.608,0.651556,0.685778,0.701333,0.704444,0.704444,0.704444,0.704444,0.704444,0.704444,0.701333,0.701333,0.698222,0.688889,0.676444,0.670222,0.651556,0.632889,0.620444,0.598667,0.567556,0.552,0.514667,0.477333,0.458667,0.421333,0.390222,0.371556,0.343556,0.315556,0.3,0.281333,0.262667,0.256444,0.247111,0.237778,0.234667,0.225333,0.219111,0.212889,0.200444,0.188,0.178667,0.166222,0.150667,0.144444,0.132,0.122667,0.116444,0.104,0.094667,0.091556,0.085333,0.079111,0.076,0.069778,0.066667,0.063556,0.063556,0.060444,0.060444,0.060444,0.057333,0.054222,0.044889,0.038667]","[0.0006,0.0162,0.0328,0.0492,0.0658,0.0826,0.0993,0.1158,0.1327,0.1496,0.1657,0.1825,0.1999,0.2163,0.2332,0.2497,0.2662,0.283,0.2996,0.3163,0.3329,0.3499,0.3664,0.383,0.3997,0.4163,0.433,0.4499,0.4664,0.4829,0.4998,0.5164,0.533,0.55,0.5664,0.5831,0.6,0.6166,0.636,0.6503,0.6666,0.684,0.7004,0.7166,0.7331,0.7501,0.7668,0.7835,0.8003,0.817,0.8335,0.8502,0.8668,0.8834,0.9004,0.9168,0.9336,0.9506,0.967,0.9836,1.0006,1.0171,1.0337,1.0504,1.0671,1.0838,1.1005,1.1171,1.1341,1.1505,1.1676,1.1841,1.2006,1.2172,1.2338,1.2507,1.2672,1.2841,1.301,1.3173,1.334,1.3509,1.3673,1.384,1.4009,1.4174,1.4341,1.451,1.4674,1.484,1.5011,1.5176,1.5343,1.5511,1.5679,1.5842,1.6012,1.6176,1.6343,1.6515,1.6679]","[1,1,1,1,1,1,1,1,1,1,1,1,1,1,1,1,1,1,1,1,1,1,1,1,1,1,1,1,1,1,1,1,1,1,1,1,1,2,2,2,2,2,2,2,2,2,2,2,2,2,2,2,2,2,2,2,2,2,2,2,2,2,2,2,2,2,2,2,2,2,2,2,2,2,2,2,2,2,2,2,2,2,2,2,2,2,2,2,2,2,2,2,2,2,2,2,2,2,2,2,2]",3,19.1951,4,4,0,4,0,1,Zeenat,4,SV_6SxWlNLsoRj8nqK,304B,2022-06-17_15h03.05.787,implicit_time,2021.1.4,Linux x86_64,59.95563283
cursorjump,52.5,0,0,10,NA,0,NA,0,0,0.5,FALSE,practice,0,"[0.004167,0.004167,0.004167,0.004167,0.004167,0.004167,0.004167,0.004167,0.004167,0.004167,0.002083,0.002083,0.002083,0.002083,0,0,0,0,0.002083,0.004167,0.0125,0.01875,0.039583,0.072917,0.095833,0.147917,0.210417,0.247917,0.329167,0.414583,0.45625,0.539583,0.61875,0.654167,0.71875,0.76875,0.7875,0.8125,0.81875,0.816667,0.816667,0.816667,0.81875,0.81875,0.820833,0.820833,0.81875,0.8125,0.795833,0.766667,0.727083,0.679167,0.654167,0.625,0.570833,0.520833,0.475,0.454167,0.4125,0.391667,0.352083,0.314583,0.277083,0.258333,0.222917,0.191667,0.177083,0.15,0.122917,0.108333,0.085417,0.072917,0.052083,0.035417]","[0.010667,0.010667,0.010667,0.010667,0.010667,0.010667,0.010667,0.010667,0.010667,0.010667,0.013778,0.013778,0.013778,0.016889,0.016889,0.02,0.02,0.023111,0.026222,0.035556,0.048,0.057333,0.082222,0.116444,0.135111,0.178667,0.231556,0.259556,0.324889,0.390222,0.421333,0.480444,0.533333,0.558222,0.598667,0.636,0.651556,0.673333,0.682667,0.679556,0.679556,0.679556,0.679556,0.682667,0.682667,0.682667,0.676444,0.673333,0.654667,0.629778,0.601778,0.567556,0.548889,0.527111,0.483556,0.44,0.399556,0.380889,0.340444,0.321778,0.284444,0.250222,0.219111,0.206667,0.178667,0.150667,0.138222,0.113333,0.088444,0.079111,0.060444,0.048,0.029333,0.010667]","[0.0009,0.0172,0.0333,0.0495,0.0664,0.0829,0.0996,0.1164,0.1331,0.1497,0.1667,0.1831,0.1998,0.2166,0.2333,0.2498,0.2679,0.2838,0.3001,0.3171,0.3337,0.3506,0.3676,0.3842,0.4009,0.4177,0.4341,0.4505,0.4678,0.4842,0.5008,0.5175,0.5341,0.5507,0.5677,0.5842,0.6022,0.6179,0.6343,0.6509,0.6677,0.6838,0.7006,0.7179,0.7344,0.7511,0.7676,0.7921,0.8027,0.8195,0.837,0.8534,0.8699,0.885,0.9014,0.9183,0.9347,0.9514,0.9684,0.9847,1.0016,1.0184,1.0349,1.0515,1.0678,1.0854,1.1012,1.118,1.1343,1.1511,1.1687,1.1848,1.2011,1.218]","[1,1,1,1,1,1,1,1,1,1,1,1,1,1,1,1,1,1,1,1,1,1,1,1,1,1,1,1,1,1,1,1,1,1,1,2,2,2,2,2,2,2,2,2,2,2,2,2,2,2,2,2,2,2,2,2,2,2,2,2,2,2,2,2,2,2,2,2,2,2,2,2,2,2]",3,20.9306,4,5,0,5,0,1,Zeenat,4,SV_6SxWlNLsoRj8nqK,304B,2022-06-17_15h03.05.787,implicit_time,2021.1.4,Linux x86_64,59.95563283
cursorjump,75,0,0.5,10,NA,0,NA,0,1,0.5,FALSE,practice,1,"[-0.00625,-0.00625,-0.00625,-0.00625,-0.00625,-0.00625,-0.00625,-0.00625,-0.00625,-0.00625,-0.00625,-0.00625,-0.00625,-0.00625,-0.00625,-0.004167,-0.004167,-0.004167,-0.004167,-0.00625,-0.00625,-0.00625,-0.00625,-0.004167,0,0.008333,0.014583,0.025,0.03125,0.041667,0.05,0.0625,0.070833,0.089583,0.1,0.122917,0.14375,0.1625,0.170833,0.19375,0.208333,0.24375,0.2875,0.329167,0.35,0.372917,0.377083,0.375,0.375,0.375,0.375,0.370833,0.366667,0.352083,0.329167,0.316667,0.291667,0.26875,0.258333,0.2375,0.216667,0.208333,0.1875,0.16875,0.158333,0.1375,0.116667,0.108333,0.091667,0.079167,0.072917,0.064583,0.058333,0.05625,0.052083,0.047917,0.045833,0.045833,0.041667,0.039583,0.035417,0.03125,0.027083,0.027083,0.025,0.022917,0.022917,0.025,0.027083,0.029167,0.029167,0.029167]","[-0.011111,-0.011111,-0.011111,-0.011111,-0.011111,-0.011111,-0.011111,-0.011111,-0.011111,-0.011111,-0.011111,-0.011111,-0.011111,-0.011111,-0.011111,-0.011111,-0.011111,-0.011111,-0.011111,-0.011111,-0.011111,-0.004889,-0.001778,0.010667,0.029333,0.051111,0.066667,0.104,0.122667,0.163111,0.209778,0.256444,0.284444,0.337333,0.365333,0.421333,0.483556,0.545778,0.576889,0.645333,0.679556,0.748,0.816444,0.884889,0.916,0.950222,0.956444,0.956444,0.956444,0.956444,0.953333,0.944,0.931556,0.897333,0.850667,0.825778,0.776,0.726222,0.701333,0.645333,0.592444,0.564444,0.511556,0.464889,0.443111,0.399556,0.359111,0.337333,0.296889,0.265778,0.250222,0.222222,0.200444,0.191111,0.175556,0.163111,0.153778,0.147556,0.138222,0.132,0.122667,0.110222,0.097778,0.091556,0.079111,0.072889,0.060444,0.051111,0.041778,0.038667,0.032444,0.029333]","[0.0007,0.0167,0.0329,0.0497,0.0662,0.0827,0.099,0.116,0.1326,0.1515,0.1662,0.1831,0.1998,0.2163,0.2328,0.2502,0.2664,0.2829,0.2999,0.3165,0.333,0.3499,0.3667,0.3832,0.4,0.4166,0.4334,0.4501,0.4668,0.4832,0.5001,0.5165,0.5332,0.5503,0.5666,0.5834,0.6001,0.6167,0.6334,0.6503,0.6669,0.6835,0.7003,0.7168,0.7337,0.7532,0.7676,0.7838,0.8004,0.8168,0.8339,0.8506,0.8671,0.8837,0.9007,0.917,0.934,0.9506,0.9672,0.9839,1.0009,1.0174,1.0338,1.0507,1.0674,1.0839,1.1007,1.1173,1.1342,1.151,1.1675,1.1839,1.2009,1.2176,1.2342,1.2511,1.2678,1.2842,1.3012,1.3176,1.3343,1.351,1.3678,1.3843,1.4012,1.4176,1.4343,1.4511,1.4677,1.4844,1.501,1.5177]","[1,1,1,1,1,1,1,1,1,1,1,1,1,1,1,1,1,1,1,1,1,1,1,1,1,1,1,1,1,1,1,1,1,1,1,1,1,1,1,1,1,1,1,1,2,2,2,2,2,2,2,2,2,2,2,2,2,2,2,2,2,2,2,2,2,2,2,2,2,2,2,2,2,2,2,2,2,2,2,2,2,2,2,2,2,2,2,2,2,2,2,2]",4,23.2999,4,6,0,6,0,1,Zeenat,4,SV_6SxWlNLsoRj8nqK,304B,2022-06-17_15h03.05.787,implicit_time,2021.1.4,Linux x86_64,59.95563283
cursorjump,82.5,0,0,10,NA,0,NA,0,0,0.5,FALSE,practice,0,"[0.022917,0.020833,0.020833,0.01875,0.016667,0.016667,0.014583,0.014583,0.014583,0.0125,0.010417,0.010417,0.010417,0.010417,0.014583,0.016667,0.020833,0.022917,0.022917,0.025,0.022917,0.022917,0.01875,0.014583,0.014583,0.01875,0.029167,0.047917,0.072917,0.0875,0.139583,0.179167,0.179167,0.2125,0.2375,0.245833,0.252083,0.25,0.247917,0.247917,0.247917,0.247917,0.247917,0.247917,0.245833,0.239583,0.222917,0.214583,0.19375,0.183333,0.160417,0.139583,0.11875,0.110417,0.095833,0.089583,0.077083,0.064583,0.052083,0.047917,0.039583,0.035417,0.03125,0.025,0.025,0.020833,0.016667,0.016667,0.0125]","[0.010667,0.007556,0.007556,0.004444,0.004444,0.001333,0.001333,0.001333,0.004444,0.007556,0.013778,0.016889,0.029333,0.041778,0.066667,0.072889,0.094667,0.104,0.110222,0.132,0.16,0.178667,0.219111,0.272,0.3,0.365333,0.436889,0.511556,0.589333,0.629778,0.748,0.825778,0.825778,0.891111,0.947111,0.968889,0.993778,0.993778,0.993778,0.993778,0.993778,0.993778,0.993778,0.993778,0.978222,0.940889,0.891111,0.863111,0.807111,0.779111,0.716889,0.651556,0.586222,0.558222,0.502222,0.474222,0.418222,0.359111,0.3,0.272,0.222222,0.200444,0.16,0.125778,0.110222,0.082222,0.060444,0.051111,0.032444]","[0.0006,0.0172,0.0329,0.0494,0.0665,0.0828,0.0996,0.1166,0.1331,0.1499,0.1664,0.183,0.1996,0.2166,0.246,0.2621,0.2893,0.3019,0.3132,0.3299,0.347,0.3632,0.3813,0.3965,0.4133,0.4316,0.4539,0.4716,0.494,0.4998,0.5295,0.5444,0.5515,0.573,0.5895,0.6023,0.6247,0.6412,0.6511,0.6678,0.684,0.7006,0.7174,0.7338,0.7504,0.7679,0.7846,0.8009,0.8179,0.8344,0.8521,0.8677,0.8845,0.9012,0.9179,0.9345,0.9512,0.968,0.9844,1.0014,1.0175,1.0342,1.0508,1.0676,1.084,1.1008,1.1176,1.1341,1.1509]","[1,1,1,1,1,1,1,1,1,1,1,1,1,1,1,1,1,1,1,1,1,1,1,1,1,1,1,1,1,1,1,1,1,1,2,2,2,2,2,2,2,2,2,2,2,2,2,2,2,2,2,2,2,2,2,2,2,2,2,2,2,2,2,2,2,2,2,2,2]",4,24.9685,4,7,0,7,0,1,Zeenat,4,SV_6SxWlNLsoRj8nqK,304B,2022-06-17_15h03.05.787,implicit_time,2021.1.4,Linux x86_64,59.95563283
cursorjump,105,0,0.5,10,NA,0,NA,0,1,0.5,FALSE,practice,1,"[0.010417,0.010417,0.010417,0.010417,0.010417,0.010417,0.010417,0.010417,0.010417,0.010417,0.010417,0.010417,0.010417,0.010417,0.010417,0.010417,0.010417,0.010417,0.008333,0.008333,0.004167,-0.002083,-0.00625,-0.016667,-0.029167,-0.0375,-0.052083,-0.06875,-0.079167,-0.097917,-0.116667,-0.125,-0.141667,-0.15625,-0.160417,-0.170833,-0.18125,-0.1875,-0.2,-0.208333,-0.225,-0.241667,-0.254167,-0.258333,-0.2625,-0.2625,-0.2625,-0.2625,-0.264583,-0.264583,-0.266667,-0.26875,-0.270833,-0.26875,-0.2625,-0.258333,-0.247917,-0.24375,-0.235417,-0.227083,-0.220833,-0.216667,-0.208333,-0.204167,-0.197917,-0.191667,-0.185417,-0.183333,-0.172917,-0.166667,-0.152083,-0.1375,-0.122917,-0.116667,-0.10625,-0.102083,-0.095833,-0.091667,-0.0875,-0.085417,-0.083333,-0.08125,-0.077083,-0.072917,-0.066667,-0.064583,-0.058333,-0.052083,-0.047917,-0.041667,-0.0375]","[-0.026667,-0.026667,-0.026667,-0.026667,-0.026667,-0.026667,-0.026667,-0.026667,-0.026667,-0.026667,-0.026667,-0.026667,-0.026667,-0.026667,-0.026667,-0.023556,-0.023556,-0.020444,-0.017333,-0.017333,-0.011111,-0.004889,-0.001778,0.010667,0.026222,0.035556,0.060444,0.094667,0.116444,0.163111,0.219111,0.253333,0.324889,0.402667,0.443111,0.533333,0.626667,0.673333,0.757333,0.794667,0.866222,0.928444,0.975111,0.987556,0.990667,0.990667,0.987556,0.987556,0.987556,0.987556,0.981333,0.968889,0.934667,0.888,0.838222,0.813333,0.760444,0.732444,0.673333,0.614222,0.552,0.524,0.464889,0.436889,0.377778,0.324889,0.275111,0.250222,0.209778,0.191111,0.16,0.132,0.110222,0.100889,0.088444,0.082222,0.069778,0.063556,0.057333,0.054222,0.048,0.044889,0.035556,0.029333,0.023111,0.02,0.013778,0.010667,0.007556,0.004444,-0.001778]","[0.0007,0.0166,0.0322,0.0497,0.066,0.0826,0.1005,0.1154,0.132,0.1493,0.1653,0.1783,0.1996,0.2161,0.2327,0.25,0.2661,0.2829,0.3004,0.3164,0.333,0.3499,0.3666,0.383,0.4002,0.4163,0.4331,0.45,0.4665,0.4831,0.5,0.5165,0.5332,0.5502,0.5666,0.5832,0.6,0.6167,0.6337,0.65,0.6669,0.6833,0.703,0.7168,0.7335,0.7502,0.767,0.7834,0.8001,0.817,0.8335,0.8502,0.8673,0.8836,0.9002,0.9171,0.9338,0.9503,0.9671,0.9839,1.0004,1.0172,1.034,1.0504,1.0675,1.0839,1.1004,1.1174,1.1338,1.1505,1.1674,1.1847,1.2008,1.2177,1.234,1.2508,1.2678,1.2841,1.3007,1.3176,1.3342,1.3509,1.3677,1.3842,1.4009,1.4177,1.4346,1.4514,1.468,1.4844,1.501]","[1,1,1,1,1,1,1,1,1,1,1,1,1,1,1,1,1,1,1,1,1,1,1,1,1,1,1,1,1,1,1,1,1,1,1,1,1,1,1,1,1,2,2,2,2,2,2,2,2,2,2,2,2,2,2,2,2,2,2,2,2,2,2,2,2,2,2,2,2,2,2,2,2,2,2,2,2,2,2,2,2,2,2,2,2,2,2,2,2,2,2]",5,26.9876,4,8,0,8,0,1,Zeenat,4,SV_6SxWlNLsoRj8nqK,304B,2022-06-17_15h03.05.787,implicit_time,2021.1.4,Linux x86_64,59.95563283
cursorjump,97.5,0,0,10,NA,0,NA,0,0,0.5,FALSE,practice,0,"[-0.00625,-0.00625,-0.00625,-0.00625,-0.00625,-0.00625,-0.00625,-0.004167,-0.004167,-0.004167,-0.004167,-0.002083,-0.002083,0,0.004167,0.004167,0.00625,0.00625,0.004167,-0.008333,-0.014583,-0.020833,-0.03125,-0.0375,-0.045833,-0.052083,-0.05625,-0.05625,-0.054167,-0.052083,-0.054167,-0.060417,-0.066667,-0.06875,-0.066667,-0.060417,-0.05,-0.0375,-0.03125,-0.03125,-0.03125,-0.03125,-0.029167,-0.025,-0.01875,-0.016667,-0.010417,-0.008333,-0.008333,-0.010417,-0.014583,-0.016667,-0.016667,-0.014583,-0.010417,-0.004167,0,0.00625,0.014583,0.01875,0.027083,0.035417,0.0375,0.04375,0.047917,0.052083,0.054167,0.058333,0.060417,0.0625,0.064583,0.066667,0.06875,0.06875,0.070833,0.070833,0.070833,0.070833,0.070833,0.06875,0.066667,0.0625,0.058333,0.054167,0.052083,0.047917,0.045833,0.039583]","[-0.023556,-0.023556,-0.023556,-0.023556,-0.020444,-0.020444,-0.017333,-0.014222,-0.011111,-0.004889,0.001333,0.004444,0.016889,0.026222,0.038667,0.048,0.066667,0.091556,0.107111,0.169333,0.194222,0.219111,0.275111,0.303111,0.365333,0.433778,0.505333,0.542667,0.614222,0.651556,0.716889,0.779111,0.835111,0.863111,0.912889,0.937778,0.981333,1.012444,1.024889,1.028,1.024889,1.024889,1.012444,0.993778,0.962667,0.944,0.897333,0.869333,0.807111,0.744889,0.682667,0.654667,0.598667,0.570667,0.514667,0.464889,0.44,0.396444,0.356,0.337333,0.306222,0.275111,0.259556,0.228444,0.197333,0.181778,0.153778,0.132,0.119556,0.100889,0.082222,0.076,0.066667,0.060444,0.057333,0.048,0.041778,0.038667,0.032444,0.026222,0.023111,0.016889,0.010667,0.004444,0.001333,-0.001778,-0.004889,-0.004889]","[0.0007,0.0169,0.0329,0.0497,0.0665,0.0829,0.0997,0.1222,0.1329,0.1498,0.1663,0.1833,0.1999,0.2164,0.2331,0.2501,0.2672,0.2862,0.3022,0.3264,0.3408,0.3507,0.3674,0.3839,0.4008,0.4173,0.436,0.4514,0.4671,0.4839,0.5008,0.5172,0.5339,0.551,0.5673,0.5841,0.6009,0.6174,0.6345,0.6508,0.6673,0.6841,0.7004,0.7176,0.734,0.7511,0.7675,0.7842,0.801,0.8187,0.8341,0.851,0.8675,0.8843,0.9012,0.9177,0.9343,0.9511,0.9678,0.984,1.0008,1.0174,1.034,1.0508,1.0678,1.0844,1.101,1.1175,1.1341,1.1509,1.1674,1.1843,1.201,1.2177,1.2342,1.2511,1.2676,1.2844,1.3012,1.3179,1.3347,1.3512,1.3677,1.3846,1.4013,1.4178,1.4344,1.4515]","[1,1,1,1,1,1,1,1,1,1,1,1,1,1,1,1,1,1,1,1,1,1,1,1,1,1,1,1,1,1,1,1,1,1,1,1,2,2,2,2,2,2,2,2,2,2,2,2,2,2,2,2,2,2,2,2,2,2,2,2,2,2,2,2,2,2,2,2,2,2,2,2,2,2,2,2,2,2,2,2,2,2,2,2,2,2,2,2]",5,28.9569,4,9,0,9,0,1,Zeenat,4,SV_6SxWlNLsoRj8nqK,304B,2022-06-17_15h03.05.787,implicit_time,2021.1.4,Linux x86_64,59.95563283
cursorjump,45,0,0.5,10,NA,0,NA,0,1,0.5,FALSE,practice,1,"[0.03125,0.03125,0.03125,0.03125,0.03125,0.03125,0.03125,0.03125,0.03125,0.03125,0.03125,0.03125,0.033333,0.033333,0.033333,0.03125,0.03125,0.03125,0.03125,0.03125,0.03125,0.033333,0.035417,0.052083,0.0875,0.114583,0.183333,0.270833,0.31875,0.420833,0.520833,0.56875,0.65625,0.733333,0.76875,0.820833,0.839583,0.839583,0.8375,0.833333,0.833333,0.829167,0.827083,0.825,0.8125,0.791667,0.779167,0.75,0.71875,0.704167,0.672917,0.639583,0.622917,0.583333,0.541667,0.520833,0.475,0.433333,0.414583,0.379167,0.347917,0.333333,0.310417,0.289583,0.279167,0.2625,0.245833,0.239583,0.227083,0.216667,0.210417,0.2,0.1875,0.18125,0.166667,0.152083,0.1375,0.13125,0.11875,0.1125,0.1,0.091667,0.077083,0.064583,0.052083,0.045833,0.0375,0.033333,0.029167,0.025]","[-0.017333,-0.017333,-0.017333,-0.017333,-0.017333,-0.017333,-0.017333,-0.017333,-0.017333,-0.017333,-0.017333,-0.017333,-0.017333,-0.017333,-0.014222,-0.014222,-0.014222,-0.014222,-0.014222,-0.014222,-0.011111,-0.004889,0.001333,0.02,0.051111,0.076,0.132,0.206667,0.247111,0.337333,0.421333,0.461778,0.530222,0.586222,0.608,0.645333,0.657778,0.660889,0.660889,0.664,0.667111,0.670222,0.670222,0.670222,0.664,0.651556,0.642222,0.617333,0.592444,0.58,0.552,0.517778,0.502222,0.464889,0.427556,0.408889,0.371556,0.331111,0.312444,0.278222,0.247111,0.234667,0.212889,0.197333,0.188,0.178667,0.172444,0.169333,0.166222,0.16,0.16,0.153778,0.144444,0.138222,0.125778,0.116444,0.104,0.097778,0.088444,0.082222,0.072889,0.069778,0.063556,0.057333,0.051111,0.044889,0.041778,0.038667,0.032444,0.032444]","[0.0007,0.0161,0.0272,0.0437,0.0605,0.0772,0.0938,0.1107,0.1275,0.144,0.1608,0.1771,0.1951,0.2177,0.2338,0.2504,0.2668,0.2837,0.3001,0.3166,0.3335,0.3504,0.3668,0.3839,0.4006,0.4169,0.4337,0.4505,0.467,0.4839,0.5003,0.5169,0.5338,0.5503,0.5671,0.5866,0.6006,0.6172,0.6339,0.6505,0.6672,0.684,0.7004,0.717,0.734,0.7508,0.7673,0.7842,0.8012,0.8175,0.8343,0.8508,0.8674,0.8842,0.9008,0.9175,0.9344,0.9508,0.9676,0.9846,1.0009,1.0175,1.0346,1.051,1.0677,1.0846,1.1012,1.1176,1.1348,1.1512,1.1677,1.1845,1.2011,1.2254,1.236,1.2528,1.276,1.2853,1.3018,1.3184,1.3352,1.3514,1.368,1.3849,1.4013,1.4181,1.4349,1.4516,1.4681,1.4849]","[1,1,1,1,1,1,1,1,1,1,1,1,1,1,1,1,1,1,1,1,1,1,1,1,1,1,1,1,1,1,1,1,1,1,2,2,2,2,2,2,2,2,2,2,2,2,2,2,2,2,2,2,2,2,2,2,2,2,2,2,2,2,2,2,2,2,2,2,2,2,2,2,2,2,2,2,2,2,2,2,2,2,2,2,2,2,2,2,2,2]",6,30.9589,4,10,0,10,0,1,Zeenat,4,SV_6SxWlNLsoRj8nqK,304B,2022-06-17_15h03.05.787,implicit_time,2021.1.4,Linux x86_64,59.95563283
cursorjump,37.5,0,0,10,NA,0,NA,0,0,0.5,FALSE,practice,0,"[0.00625,0.00625,0.00625,0.00625,0.00625,0.00625,0.00625,0.00625,0.00625,0.00625,0.00625,0.008333,0.008333,0.010417,0.010417,0.010417,0.010417,0.0125,0.0125,0.016667,0.020833,0.035417,0.060417,0.079167,0.125,0.185417,0.216667,0.2875,0.325,0.402083,0.483333,0.564583,0.60625,0.685417,0.720833,0.777083,0.808333,0.822917,0.825,0.827083,0.827083,0.827083,0.827083,0.827083,0.827083,0.827083,0.827083,0.827083,0.829167,0.835417,0.841667,0.85625,0.866667,0.885417,0.897917,0.90625,0.908333,0.910417,0.910417,0.910417,0.910417,0.902083,0.891667,0.858333,0.808333,0.779167,0.716667,0.652083,0.620833,0.560417,0.502083,0.475,0.414583,0.352083,0.320833,0.264583,0.214583,0.19375,0.15625,0.127083,0.114583,0.095833,0.083333,0.079167,0.070833,0.06875,0.066667,0.064583,0.064583,0.064583,0.064583,0.064583,0.0625,0.0625,0.0625,0.060417,0.060417,0.060417,0.060417,0.058333,0.05625,0.052083,0.047917,0.045833,0.041667,0.0375,0.033333]","[0.007556,0.007556,0.007556,0.007556,0.007556,0.007556,0.010667,0.010667,0.013778,0.013778,0.02,0.02,0.023111,0.026222,0.026222,0.026222,0.026222,0.029333,0.029333,0.035556,0.038667,0.051111,0.072889,0.088444,0.128889,0.172444,0.197333,0.244,0.268889,0.315556,0.359111,0.405778,0.424444,0.461778,0.477333,0.499111,0.514667,0.524,0.524,0.527111,0.527111,0.527111,0.527111,0.527111,0.527111,0.527111,0.527111,0.527111,0.530222,0.533333,0.536444,0.542667,0.548889,0.558222,0.567556,0.573778,0.573778,0.576889,0.576889,0.576889,0.576889,0.573778,0.570667,0.552,0.527111,0.511556,0.477333,0.44,0.421333,0.380889,0.337333,0.315556,0.272,0.231556,0.212889,0.178667,0.147556,0.138222,0.116444,0.100889,0.091556,0.082222,0.076,0.072889,0.066667,0.063556,0.060444,0.057333,0.054222,0.054222,0.051111,0.051111,0.051111,0.048,0.048,0.048,0.044889,0.044889,0.044889,0.041778,0.041778,0.038667,0.035556,0.032444,0.029333,0.026222,0.02]","[0.0001,0.0166,0.0332,0.0499,0.0667,0.0834,0.1,0.1165,0.1331,0.15,0.1667,0.1834,0.1999,0.2166,0.2333,0.2502,0.2669,0.2837,0.3003,0.3169,0.3336,0.3504,0.367,0.3836,0.4004,0.417,0.4337,0.4504,0.4673,0.484,0.5005,0.5172,0.5338,0.5505,0.5673,0.5839,0.6004,0.6171,0.6339,0.6507,0.6674,0.6842,0.7006,0.7172,0.734,0.7508,0.7673,0.7839,0.8008,0.8174,0.8343,0.8509,0.8674,0.8842,0.9009,0.9176,0.9343,0.951,0.9675,0.9842,1.0009,1.0176,1.0345,1.0512,1.0678,1.0845,1.1012,1.1171,1.1339,1.1507,1.1679,1.1847,1.2004,1.218,1.2338,1.2504,1.2679,1.2847,1.3004,1.3181,1.3338,1.3513,1.3692,1.3849,1.4005,1.4173,1.434,1.4506,1.4681,1.4839,1.5008,1.5174,1.534,1.5508,1.5674,1.5842,1.6008,1.6174,1.6342,1.6509,1.6674,1.6843,1.7009,1.7176,1.7343,1.7509,1.7677]","[1,1,1,1,1,1,1,1,1,1,1,1,1,1,1,1,1,1,1,1,1,1,1,1,1,1,1,1,1,1,1,1,1,1,1,1,1,2,2,2,2,2,2,2,2,2,2,2,2,2,2,2,2,2,2,2,2,2,2,2,2,2,2,2,2,2,2,2,2,2,2,2,2,2,2,2,2,2,2,2,2,2,2,2,2,2,2,2,2,2,2,2,2,2,2,2,2,2,2,2,2,2,2,2,2,2,2]",6,33.2367,4,11,0,11,0,1,Zeenat,4,SV_6SxWlNLsoRj8nqK,304B,2022-06-17_15h03.05.787,implicit_time,2021.1.4,Linux x86_64,59.95563283
cursorjump,135,0,0.5,10,NA,0,NA,0,1,0.5,FALSE,practice,1,"[0.004167,0.004167,0.004167,0.002083,0.002083,0,0,0,0.002083,0.002083,0.002083,0.002083,0.002083,0.002083,0.002083,0.002083,0,-0.002083,-0.004167,-0.008333,-0.0125,-0.025,-0.041667,-0.060417,-0.070833,-0.09375,-0.10625,-0.133333,-0.164583,-0.183333,-0.222917,-0.264583,-0.285417,-0.327083,-0.366667,-0.385417,-0.425,-0.464583,-0.483333,-0.520833,-0.55625,-0.572917,-0.604167,-0.633333,-0.645833,-0.666667,-0.679167,-0.683333,-0.685417,-0.685417,-0.683333,-0.677083,-0.664583,-0.65625,-0.639583,-0.61875,-0.608333,-0.583333,-0.554167,-0.539583,-0.510417,-0.48125,-0.464583,-0.43125,-0.395833,-0.377083,-0.341667,-0.30625,-0.289583,-0.275,-0.233333,-0.220833,-0.197917,-0.177083,-0.16875,-0.152083,-0.1375,-0.13125,-0.120833,-0.1125,-0.108333,-0.104167,-0.1,-0.097917,-0.09375,-0.0875,-0.08125,-0.079167,-0.072917,-0.070833,-0.066667,-0.0625,-0.060417,-0.054167,-0.047917,-0.045833,-0.039583]","[-0.011111,-0.011111,-0.011111,-0.014222,-0.014222,-0.014222,-0.014222,-0.014222,-0.014222,-0.017333,-0.017333,-0.017333,-0.017333,-0.017333,-0.017333,-0.017333,-0.017333,-0.014222,-0.014222,-0.011111,-0.008,-0.001778,0.013778,0.032444,0.044889,0.076,0.094667,0.135111,0.178667,0.200444,0.244,0.284444,0.306222,0.352889,0.399556,0.424444,0.474222,0.524,0.552,0.598667,0.639111,0.654667,0.685778,0.713778,0.726222,0.748,0.760444,0.763556,0.763556,0.760444,0.754222,0.735556,0.713778,0.698222,0.670222,0.639111,0.623556,0.586222,0.548889,0.530222,0.489778,0.452444,0.433778,0.396444,0.362222,0.343556,0.306222,0.272,0.253333,0.237778,0.184889,0.166222,0.135111,0.100889,0.085333,0.054222,0.029333,0.02,0.001333,-0.011111,-0.014222,-0.023556,-0.026667,-0.026667,-0.026667,-0.026667,-0.023556,-0.020444,-0.017333,-0.014222,-0.011111,-0.008,-0.004889,0.001333,0.004444,0.007556,0.010667]","[0.0002,0.0165,0.0334,0.0499,0.0665,0.0833,0.0999,0.1167,0.1332,0.1499,0.1667,0.1834,0.2002,0.2168,0.2336,0.2502,0.267,0.2837,0.3001,0.3168,0.3336,0.3503,0.3671,0.3836,0.4004,0.4171,0.4336,0.4503,0.4672,0.4837,0.4999,0.5172,0.5339,0.5504,0.5671,0.5839,0.6007,0.6173,0.6338,0.6505,0.6674,0.6844,0.7006,0.7175,0.734,0.7506,0.7675,0.7841,0.801,0.8175,0.8343,0.851,0.8676,0.8843,0.9009,0.9176,0.9342,0.9509,0.9676,0.9844,1.001,1.0177,1.0338,1.0512,1.0669,1.0845,1.1012,1.117,1.1345,1.1505,1.1681,1.1855,1.201,1.2177,1.234,1.2506,1.2671,1.2839,1.3005,1.3172,1.3342,1.3505,1.3671,1.3839,1.4006,1.4173,1.4348,1.4506,1.4675,1.484,1.5006,1.5174,1.534,1.5507,1.5675,1.5841,1.6006]","[1,1,1,1,1,1,1,1,1,1,1,1,1,1,1,1,1,1,1,1,1,1,1,1,1,1,1,1,1,1,1,1,1,1,1,1,1,1,1,1,1,1,1,1,2,2,2,2,2,2,2,2,2,2,2,2,2,2,2,2,2,2,2,2,2,2,2,2,2,2,2,2,2,2,2,2,2,2,2,2,2,2,2,2,2,2,2,2,2,2,2,2,2,2,2,2,2]",7,35.3547,4,12,0,12,0,1,Zeenat,4,SV_6SxWlNLsoRj8nqK,304B,2022-06-17_15h03.05.787,implicit_time,2021.1.4,Linux x86_64,59.95563283
cursorjump,142.5,0,0,10,NA,0,NA,0,0,0.5,FALSE,practice,0,"[-0.022917,-0.022917,-0.022917,-0.022917,-0.022917,-0.022917,-0.022917,-0.022917,-0.022917,-0.022917,-0.022917,-0.022917,-0.022917,-0.022917,-0.022917,-0.022917,-0.022917,-0.022917,-0.025,-0.027083,-0.03125,-0.039583,-0.045833,-0.0625,-0.072917,-0.09375,-0.11875,-0.147917,-0.164583,-0.197917,-0.216667,-0.260417,-0.308333,-0.358333,-0.385417,-0.439583,-0.46875,-0.525,-0.583333,-0.6125,-0.66875,-0.720833,-0.74375,-0.783333,-0.808333,-0.8125,-0.8125,-0.8125,-0.814583,-0.8125,-0.804167,-0.795833,-0.770833,-0.739583,-0.702083,-0.68125,-0.64375,-0.622917,-0.585417,-0.547917,-0.508333,-0.489583,-0.45,-0.43125,-0.389583,-0.35,-0.310417,-0.291667,-0.25625,-0.239583,-0.2125,-0.1875,-0.16875,-0.158333,-0.14375,-0.1375,-0.125,-0.1125,-0.108333,-0.102083,-0.097917,-0.095833,-0.095833,-0.097917,-0.097917,-0.097917,-0.097917,-0.095833,-0.09375,-0.089583,-0.083333,-0.079167,-0.066667,-0.060417,-0.041667,-0.025]","[-0.001778,-0.001778,-0.001778,-0.001778,-0.001778,-0.001778,-0.001778,-0.001778,0.001333,0.001333,0.004444,0.007556,0.007556,0.010667,0.013778,0.013778,0.016889,0.02,0.02,0.023111,0.026222,0.032444,0.035556,0.048,0.054222,0.076,0.104,0.138222,0.16,0.203556,0.225333,0.275111,0.321778,0.374667,0.402667,0.461778,0.489778,0.542667,0.589333,0.608,0.642222,0.670222,0.682667,0.701333,0.710667,0.713778,0.713778,0.713778,0.710667,0.707556,0.688889,0.676444,0.648444,0.614222,0.58,0.561333,0.524,0.505333,0.468,0.433778,0.396444,0.377778,0.340444,0.321778,0.287556,0.256444,0.225333,0.209778,0.181778,0.169333,0.144444,0.122667,0.100889,0.088444,0.069778,0.060444,0.044889,0.029333,0.023111,0.013778,0.004444,0.001333,-0.001778,-0.004889,-0.004889,-0.008,-0.008,-0.008,-0.011111,-0.011111,-0.008,-0.008,-0.004889,-0.004889,-0.001778,0.004444]","[0.0002,0.0165,0.0331,0.0502,0.0665,0.083,0.0998,0.1166,0.1332,0.15,0.1665,0.1834,0.1999,0.2167,0.2334,0.2503,0.2667,0.2834,0.3001,0.3169,0.3336,0.3502,0.367,0.3837,0.4003,0.417,0.4335,0.4507,0.4669,0.4837,0.5004,0.5171,0.5338,0.5506,0.5671,0.5839,0.6004,0.6172,0.6339,0.6506,0.6671,0.6839,0.7006,0.7174,0.734,0.7506,0.7673,0.7841,0.8008,0.8175,0.8342,0.8506,0.8673,0.8836,0.9009,0.9176,0.934,0.9508,0.9676,0.9841,1.0008,1.0175,1.0341,1.0509,1.0676,1.0844,1.1012,1.1178,1.1345,1.1511,1.1677,1.1846,1.2011,1.2177,1.2344,1.2504,1.2678,1.2839,1.3005,1.3171,1.3339,1.3506,1.368,1.384,1.4007,1.4173,1.434,1.4515,1.4674,1.484,1.5008,1.5174,1.5341,1.5508,1.5675,1.5843]","[1,1,1,1,1,1,1,1,1,1,1,1,1,1,1,1,1,1,1,1,1,1,1,1,1,1,1,1,1,1,1,1,1,1,1,1,1,1,1,1,1,2,2,2,2,2,2,2,2,2,2,2,2,2,2,2,2,2,2,2,2,2,2,2,2,2,2,2,2,2,2,2,2,2,2,2,2,2,2,2,2,2,2,2,2,2,2,2,2,2,2,2,2,2,2,2]",7,37.4566,4,13,0,13,0,1,Zeenat,4,SV_6SxWlNLsoRj8nqK,304B,2022-06-17_15h03.05.787,implicit_time,2021.1.4,Linux x86_64,59.95563283
cursorjump,75,0,0.5,10,NA,0,NA,0,1,0.5,FALSE,practice,1,"[0.002083,0.002083,0.002083,0.002083,0.002083,0.002083,0.002083,0.002083,0.002083,0.002083,0.002083,0.002083,0,0,-0.002083,-0.002083,-0.002083,-0.002083,-0.002083,-0.002083,-0.004167,-0.004167,-0.00625,-0.00625,-0.00625,-0.004167,0.002083,0.00625,0.01875,0.0375,0.047917,0.075,0.104167,0.11875,0.15,0.185417,0.204167,0.241667,0.283333,0.302083,0.3375,0.352083,0.354167,0.35,0.345833,0.345833,0.34375,0.34375,0.339583,0.329167,0.320833,0.295833,0.26875,0.241667,0.229167,0.208333,0.197917,0.18125,0.1625,0.145833,0.135417,0.120833,0.1125,0.097917,0.08125,0.064583,0.05625,0.039583,0.033333,0.01875,0.004167,-0.008333,-0.0125,-0.020833,-0.025,-0.03125,-0.035417,-0.035417,-0.035417,-0.035417,-0.035417,-0.033333,-0.029167,-0.027083,-0.027083,-0.027083]","[-0.011111,-0.011111,-0.014222,-0.014222,-0.011111,-0.011111,-0.011111,-0.011111,-0.011111,-0.011111,-0.011111,-0.011111,-0.014222,-0.014222,-0.014222,-0.014222,-0.014222,-0.014222,-0.014222,-0.014222,-0.014222,-0.011111,-0.004889,0.007556,0.016889,0.041778,0.079111,0.100889,0.153778,0.219111,0.256444,0.331111,0.418222,0.461778,0.552,0.645333,0.692,0.776,0.847556,0.881778,0.934667,0.962667,0.965778,0.965778,0.968889,0.968889,0.968889,0.968889,0.968889,0.956444,0.947111,0.922222,0.881778,0.835111,0.810222,0.760444,0.732444,0.679556,0.626667,0.573778,0.548889,0.496,0.471111,0.418222,0.368444,0.321778,0.3,0.259556,0.237778,0.203556,0.175556,0.153778,0.141333,0.125778,0.119556,0.104,0.094667,0.085333,0.079111,0.072889,0.066667,0.057333,0.048,0.035556,0.032444,0.026222]","[0.0001,0.0166,0.033,0.0498,0.0664,0.083,0.0996,0.1164,0.1331,0.1497,0.1663,0.1831,0.2,0.2166,0.2333,0.2501,0.2666,0.2831,0.3,0.3167,0.3333,0.35,0.3667,0.3834,0.4,0.417,0.4335,0.4502,0.467,0.4837,0.5002,0.5169,0.5338,0.5503,0.567,0.5838,0.6003,0.6172,0.6337,0.6506,0.6672,0.6842,0.7008,0.7174,0.734,0.7505,0.7672,0.784,0.8007,0.8174,0.834,0.8508,0.8674,0.8842,0.9009,0.9176,0.9341,0.9508,0.9675,0.9843,1.0008,1.0177,1.0343,1.0509,1.0678,1.0844,1.101,1.1176,1.1344,1.151,1.1679,1.1844,1.2012,1.2178,1.2339,1.2513,1.268,1.2841,1.3012,1.3178,1.3347,1.3506,1.3681,1.3847,1.4015,1.4175]","[1,1,1,1,1,1,1,1,1,1,1,1,1,1,1,1,1,1,1,1,1,1,1,1,1,1,1,1,1,1,1,1,1,1,1,1,1,1,1,1,2,2,2,2,2,2,2,2,2,2,2,2,2,2,2,2,2,2,2,2,2,2,2,2,2,2,2,2,2,2,2,2,2,2,2,2,2,2,2,2,2,2,2,2,2,2]",8,39.3919,4,14,0,14,0,1,Zeenat,4,SV_6SxWlNLsoRj8nqK,304B,2022-06-17_15h03.05.787,implicit_time,2021.1.4,Linux x86_64,59.95563283
cursorjump,82.5,0,0,10,NA,0,NA,0,0,0.5,FALSE,practice,0,"[0.00625,0.008333,0.008333,0.008333,0.008333,0.008333,0.008333,0.00625,0.008333,0.008333,0.008333,0.008333,0.010417,0.0125,0.016667,0.01875,0.020833,0.022917,0.025,0.025,0.027083,0.027083,0.029167,0.029167,0.029167,0.027083,0.022917,0.020833,0.016667,0.016667,0.01875,0.025,0.033333,0.0375,0.045833,0.054167,0.058333,0.070833,0.085417,0.089583,0.091667,0.089583,0.0875,0.0875,0.085417,0.085417,0.08125,0.075,0.06875,0.054167,0.0375,0.029167,0.0125,-0.008333,-0.025,-0.033333,-0.047917,-0.052083,-0.0625,-0.072917,-0.08125,-0.083333,-0.089583,-0.089583,-0.091667,-0.09375,-0.09375,-0.09375,-0.09375,-0.09375,-0.09375,-0.09375,-0.09375,-0.095833,-0.095833,-0.095833,-0.095833,-0.095833,-0.09375,-0.089583,-0.085417,-0.083333,-0.077083,-0.072917,-0.070833,-0.066667,-0.060417,-0.058333,-0.05,-0.045833,-0.035417]","[0.016889,0.013778,0.013778,0.013778,0.013778,0.013778,0.013778,0.016889,0.016889,0.02,0.023111,0.026222,0.026222,0.029333,0.035556,0.038667,0.041778,0.048,0.054222,0.066667,0.088444,0.104,0.138222,0.181778,0.206667,0.262667,0.324889,0.356,0.427556,0.502222,0.542667,0.614222,0.685778,0.72,0.785333,0.847556,0.878667,0.937778,0.990667,1.006222,1.018667,1.015556,1.015556,1.015556,1.015556,1.012444,0.996889,0.962667,0.940889,0.891111,0.841333,0.813333,0.757333,0.698222,0.642222,0.614222,0.561333,0.536444,0.489778,0.443111,0.399556,0.377778,0.340444,0.324889,0.290667,0.262667,0.234667,0.222222,0.197333,0.181778,0.16,0.135111,0.113333,0.104,0.085333,0.076,0.060444,0.051111,0.041778,0.029333,0.02,0.013778,0.007556,-0.001778,-0.004889,-0.008,-0.014222,-0.014222,-0.017333,-0.017333,-0.017333]","[0.0002,0.0164,0.0329,0.0498,0.066,0.0832,0.0999,0.1162,0.1329,0.1498,0.1665,0.1834,0.1999,0.2164,0.2331,0.25,0.2665,0.2833,0.2998,0.3164,0.3332,0.35,0.3667,0.3835,0.3999,0.4167,0.4335,0.4502,0.467,0.4836,0.5002,0.5168,0.5336,0.5504,0.5674,0.5838,0.6006,0.6171,0.6338,0.6505,0.6672,0.684,0.7005,0.7172,0.734,0.7504,0.7673,0.7842,0.8008,0.8174,0.8341,0.8509,0.8674,0.8839,0.9008,0.9174,0.9342,0.9508,0.9673,0.9841,1.0009,1.0169,1.0344,1.051,1.0677,1.0842,1.101,1.1177,1.1343,1.1511,1.1678,1.1843,1.201,1.2177,1.2344,1.2512,1.2678,1.2845,1.301,1.3179,1.3347,1.3513,1.368,1.3846,1.4012,1.418,1.4347,1.4515,1.4681,1.4838,1.5015]","[1,1,1,1,1,1,1,1,1,1,1,1,1,1,1,1,1,1,1,1,1,1,1,1,1,1,1,1,1,1,1,1,1,1,1,1,1,1,2,2,2,2,2,2,2,2,2,2,2,2,2,2,2,2,2,2,2,2,2,2,2,2,2,2,2,2,2,2,2,2,2,2,2,2,2,2,2,2,2,2,2,2,2,2,2,2,2,2,2,2,2]",8,41.4112,4,15,0,15,0,1,Zeenat,4,SV_6SxWlNLsoRj8nqK,304B,2022-06-17_15h03.05.787,implicit_time,2021.1.4,Linux x86_64,59.95563283
cursorjump,135,0,0.5,10,NA,0,NA,0,1,0.5,FALSE,practice,1,"[0.002083,0.002083,0.002083,0.002083,0.002083,0.002083,0.004167,0.004167,0.002083,0.002083,0.002083,0.002083,0.002083,0.002083,0.002083,0.002083,0.002083,0.002083,0.002083,0,-0.002083,-0.008333,-0.01875,-0.027083,-0.045833,-0.05625,-0.0875,-0.127083,-0.179167,-0.208333,-0.270833,-0.302083,-0.370833,-0.439583,-0.510417,-0.545833,-0.6125,-0.645833,-0.704167,-0.75625,-0.783333,-0.785417,-0.78125,-0.779167,-0.783333,-0.791667,-0.79375,-0.79375,-0.791667,-0.789583,-0.779167,-0.760417,-0.7375,-0.725,-0.697917,-0.683333,-0.65625,-0.627083,-0.6,-0.585417,-0.55625,-0.541667,-0.514583,-0.485417,-0.458333,-0.44375,-0.41875,-0.404167,-0.379167,-0.352083,-0.325,-0.310417,-0.283333,-0.270833,-0.241667,-0.216667,-0.195833,-0.185417,-0.170833,-0.1625,-0.147917,-0.13125,-0.116667,-0.110417,-0.095833,-0.089583,-0.077083,-0.064583,-0.052083,-0.047917,-0.0375,-0.033333,-0.027083,-0.020833]","[-0.017333,-0.017333,-0.017333,-0.017333,-0.017333,-0.017333,-0.020444,-0.020444,-0.020444,-0.020444,-0.020444,-0.023556,-0.023556,-0.023556,-0.026667,-0.026667,-0.026667,-0.026667,-0.026667,-0.020444,-0.017333,-0.001778,0.023111,0.038667,0.072889,0.091556,0.132,0.172444,0.219111,0.240889,0.290667,0.315556,0.371556,0.430667,0.489778,0.517778,0.573778,0.601778,0.651556,0.698222,0.72,0.723111,0.710667,0.704444,0.685778,0.673333,0.664,0.664,0.660889,0.654667,0.636,0.614222,0.589333,0.576889,0.548889,0.533333,0.502222,0.464889,0.430667,0.412,0.374667,0.356,0.315556,0.278222,0.244,0.225333,0.188,0.169333,0.135111,0.100889,0.072889,0.057333,0.032444,0.02,-0.001778,-0.023556,-0.039111,-0.048444,-0.067111,-0.073333,-0.085778,-0.095111,-0.101333,-0.101333,-0.101333,-0.098222,-0.095111,-0.085778,-0.076444,-0.073333,-0.060889,-0.054667,-0.045333,-0.036]","[0.0007,0.0182,0.0324,0.0496,0.0663,0.0829,0.0998,0.1164,0.1332,0.1497,0.1665,0.1833,0.1999,0.2166,0.2332,0.2498,0.2665,0.2832,0.3,0.3167,0.3332,0.3502,0.3668,0.3835,0.4002,0.4168,0.4333,0.4502,0.4667,0.4834,0.5003,0.517,0.5335,0.5503,0.567,0.5837,0.6003,0.6169,0.6336,0.6505,0.6671,0.6839,0.7005,0.7166,0.7337,0.7505,0.7673,0.7838,0.8006,0.8173,0.8339,0.8506,0.8674,0.884,0.9007,0.9174,0.9341,0.9507,0.9672,0.9841,1.0009,1.0175,1.0342,1.051,1.0676,1.0843,1.101,1.1177,1.1343,1.151,1.1678,1.1844,1.2051,1.2184,1.2391,1.2517,1.268,1.2847,1.3016,1.3181,1.3346,1.3515,1.3681,1.3848,1.4015,1.4179,1.4345,1.4515,1.4681,1.4848,1.5016,1.5182,1.5349,1.5516]","[1,1,1,1,1,1,1,1,1,1,1,1,1,1,1,1,1,1,1,1,1,1,1,1,1,1,1,1,1,1,1,1,1,1,1,1,1,1,2,2,2,2,2,2,2,2,2,2,2,2,2,2,2,2,2,2,2,2,2,2,2,2,2,2,2,2,2,2,2,2,2,2,2,2,2,2,2,2,2,2,2,2,2,2,2,2,2,2,2,2,2,2,2,2]",9,43.4794,4,16,0,16,0,1,Zeenat,4,SV_6SxWlNLsoRj8nqK,304B,2022-06-17_15h03.05.787,implicit_time,2021.1.4,Linux x86_64,59.95563283
cursorjump,142.5,0,0,10,NA,0,NA,0,0,0.5,FALSE,practice,0,"[0.014583,0.014583,0.014583,0.014583,0.014583,0.0125,0.0125,0.014583,0.014583,0.014583,0.014583,0.014583,0.014583,0.0125,0.008333,0.00625,0,-0.010417,-0.01875,-0.0375,-0.060417,-0.075,-0.104167,-0.1375,-0.15625,-0.2,-0.25,-0.279167,-0.3375,-0.39375,-0.422917,-0.479167,-0.5375,-0.566667,-0.625,-0.677083,-0.7,-0.739583,-0.75625,-0.785417,-0.810417,-0.822917,-0.825,-0.825,-0.827083,-0.83125,-0.829167,-0.820833,-0.8125,-0.7875,-0.772917,-0.7375,-0.695833,-0.65625,-0.6375,-0.602083,-0.585417,-0.547917,-0.5125,-0.475,-0.45625,-0.416667,-0.395833,-0.358333,-0.322917,-0.289583,-0.275,-0.24375,-0.229167,-0.202083,-0.175,-0.152083,-0.139583,-0.11875,-0.110417,-0.091667,-0.077083,-0.066667,-0.0625,-0.052083,-0.045833,-0.041667,-0.0375]","[-0.001778,-0.001778,-0.004889,-0.004889,-0.004889,-0.004889,-0.004889,-0.004889,-0.004889,-0.004889,-0.004889,-0.004889,-0.004889,-0.004889,-0.004889,-0.004889,0.001333,0.007556,0.013778,0.029333,0.051111,0.063556,0.091556,0.128889,0.147556,0.188,0.228444,0.250222,0.296889,0.343556,0.368444,0.415111,0.461778,0.486667,0.527111,0.567556,0.586222,0.620444,0.636,0.664,0.688889,0.698222,0.698222,0.698222,0.695111,0.692,0.679556,0.657778,0.645333,0.617333,0.604889,0.573778,0.539556,0.499111,0.480444,0.44,0.421333,0.377778,0.337333,0.3,0.281333,0.250222,0.237778,0.209778,0.188,0.166222,0.153778,0.135111,0.125778,0.107111,0.091556,0.076,0.066667,0.054222,0.048,0.032444,0.02,0.007556,0.004444,-0.004889,-0.011111,-0.014222,-0.017333]","[0.0007,0.0173,0.0331,0.0497,0.0673,0.084,0.1002,0.1163,0.133,0.1499,0.1665,0.183,0.1997,0.2165,0.2331,0.2499,0.2666,0.2833,0.2999,0.3166,0.3334,0.3501,0.3668,0.3834,0.4,0.4166,0.4336,0.4503,0.4668,0.4834,0.5003,0.517,0.5335,0.5503,0.5675,0.5839,0.6006,0.6171,0.6341,0.6507,0.6673,0.6839,0.7007,0.7171,0.7341,0.7508,0.7673,0.7839,0.8005,0.8175,0.8342,0.8509,0.8673,0.8841,0.9007,0.9174,0.9343,0.951,0.9675,0.9841,1.0009,1.0176,1.0344,1.051,1.0678,1.0843,1.1011,1.1177,1.1345,1.1512,1.1678,1.1843,1.2009,1.2177,1.2345,1.2512,1.2677,1.2845,1.3012,1.318,1.3346,1.3513,1.368]","[1,1,1,1,1,1,1,1,1,1,1,1,1,1,1,1,1,1,1,1,1,1,1,1,1,1,1,1,1,1,1,1,1,1,1,1,1,2,2,2,2,2,2,2,2,2,2,2,2,2,2,2,2,2,2,2,2,2,2,2,2,2,2,2,2,2,2,2,2,2,2,2,2,2,2,2,2,2,2,2,2,2,2]",9,45.3638,4,17,0,17,0,1,Zeenat,4,SV_6SxWlNLsoRj8nqK,304B,2022-06-17_15h03.05.787,implicit_time,2021.1.4,Linux x86_64,59.95563283
cursorjump,105,0,0.5,10,NA,0,NA,0,1,0.5,FALSE,practice,1,"[-0.00625,-0.008333,-0.010417,-0.010417,-0.0125,-0.0125,-0.0125,-0.0125,-0.0125,-0.0125,-0.0125,-0.0125,-0.0125,-0.0125,-0.0125,-0.0125,-0.0125,-0.0125,-0.014583,-0.014583,-0.016667,-0.020833,-0.029167,-0.033333,-0.04375,-0.05,-0.066667,-0.083333,-0.104167,-0.114583,-0.139583,-0.154167,-0.18125,-0.208333,-0.23125,-0.239583,-0.25625,-0.2625,-0.272917,-0.28125,-0.283333,-0.285417,-0.285417,-0.285417,-0.279167,-0.26875,-0.2625,-0.247917,-0.233333,-0.225,-0.208333,-0.191667,-0.18125,-0.164583,-0.15,-0.14375,-0.133333,-0.129167,-0.127083,-0.122917,-0.116667,-0.10625,-0.1,-0.0875,-0.079167,-0.064583,-0.052083,-0.04375,-0.03125,-0.020833,-0.016667,-0.00625,-0.004167]","[-0.008,-0.008,-0.011111,-0.011111,-0.011111,-0.011111,-0.011111,-0.011111,-0.011111,-0.011111,-0.011111,-0.011111,-0.011111,-0.011111,-0.011111,-0.011111,-0.008,-0.004889,-0.001778,0.001333,0.010667,0.023111,0.038667,0.048,0.072889,0.085333,0.122667,0.163111,0.212889,0.240889,0.303111,0.337333,0.412,0.489778,0.567556,0.608,0.682667,0.72,0.782222,0.835111,0.86,0.897333,0.931556,0.947111,0.972,0.987556,0.990667,0.987556,0.975111,0.962667,0.934667,0.900444,0.878667,0.832,0.782222,0.754222,0.698222,0.642222,0.614222,0.555111,0.492889,0.430667,0.399556,0.340444,0.312444,0.262667,0.216,0.194222,0.153778,0.119556,0.100889,0.054222,0.029333]","[0.0006,0.0165,0.0332,0.0499,0.0664,0.0831,0.0998,0.1165,0.1333,0.1495,0.1665,0.1829,0.1998,0.2165,0.2335,0.25,0.2667,0.2833,0.2999,0.3167,0.3335,0.3502,0.3669,0.3836,0.4017,0.4172,0.4339,0.4504,0.4669,0.4835,0.5004,0.5172,0.5338,0.5504,0.567,0.5839,0.6005,0.6171,0.6338,0.6503,0.667,0.6839,0.7005,0.7172,0.734,0.7505,0.7671,0.7839,0.8005,0.8173,0.8341,0.8504,0.8672,0.8841,0.9008,0.9176,0.9342,0.9509,0.9673,0.9841,1.0009,1.0198,1.0343,1.051,1.0675,1.0842,1.1011,1.118,1.1345,1.1511,1.1678,1.2015,1.2152]","[1,1,1,1,1,1,1,1,1,1,1,1,1,1,1,1,1,1,1,1,1,1,1,1,1,1,1,1,1,1,1,1,1,1,1,1,1,1,1,1,1,1,2,2,2,2,2,2,2,2,2,2,2,2,2,2,2,2,2,2,2,2,2,2,2,2,2,2,2,2,2,2,2]",10,47.5796,4,18,0,18,0,1,Zeenat,4,SV_6SxWlNLsoRj8nqK,304B,2022-06-17_15h03.05.787,implicit_time,2021.1.4,Linux x86_64,59.95563283
cursorjump,97.5,0,0,10,NA,0,NA,0,0,0.5,FALSE,practice,0,"[0.014583,0.016667,0.020833,0.029167,0.033333,0.041667,0.047917,0.052083,0.05625,0.058333,0.054167,0.03125,0,-0.029167,-0.041667,-0.054167,-0.054167,-0.05,-0.041667,-0.035417,-0.033333,-0.033333,-0.035417,-0.0375,-0.035417,-0.033333,-0.029167,-0.020833,-0.014583,0,0.016667,0.033333,0.033333,0.03125,0.03125,0.029167,0.029167,0.027083,0.027083,0.022917,0.020833,0.016667,0.0125,0.010417,0.002083,-0.004167,-0.010417,-0.0125,-0.020833,-0.025,-0.035417,-0.04375,-0.05,-0.060417,-0.070833,-0.075,-0.089583,-0.104167,-0.120833,-0.127083,-0.1375,-0.141667,-0.145833,-0.15,-0.152083,-0.154167,-0.154167,-0.154167,-0.152083,-0.145833,-0.1375,-0.133333,-0.125,-0.120833,-0.114583,-0.1125,-0.108333,-0.10625,-0.104167,-0.102083,-0.097917,-0.095833,-0.097917,-0.102083,-0.1125,-0.11875,-0.135417,-0.15,-0.160417,-0.1625,-0.166667,-0.16875,-0.172917,-0.177083,-0.179167,-0.18125,-0.18125,-0.18125,-0.183333,-0.183333,-0.183333,-0.183333,-0.183333,-0.183333,-0.18125,-0.175,-0.1625,-0.154167,-0.133333,-0.122917,-0.102083,-0.083333,-0.075,-0.0625,-0.052083,-0.047917,-0.041667,-0.039583,-0.0375,-0.033333,-0.029167,-0.025,-0.01875,-0.0125,-0.008333,0,0.008333,0.014583,0.022917,0.03125,0.033333,0.0375,0.0375,0.0375,0.033333,0.027083,0.022917,0.01875,0.01875,0.020833,0.029167,0.041667,0.047917,0.060417,0.072917,0.077083,0.0875,0.095833,0.1,0.102083,0.104167,0.102083,0.097917,0.091667,0.0875,0.08125,0.077083,0.075,0.075,0.072917,0.072917,0.070833,0.066667,0.064583,0.060417,0.052083,0.047917,0.039583,0.033333,0.03125,0.027083,0.025,0.025]","[-0.008,-0.014222,-0.014222,-0.014222,-0.017333,-0.017333,-0.017333,-0.014222,-0.011111,-0.014222,-0.020444,-0.051556,-0.092,-0.116889,-0.126222,-0.138667,-0.141778,-0.144889,-0.141778,-0.135556,-0.135556,-0.132444,-0.132444,-0.141778,-0.157333,-0.176,-0.185333,-0.204,-0.213333,-0.225778,-0.238222,-0.253778,-0.253778,-0.253778,-0.253778,-0.253778,-0.253778,-0.247556,-0.244444,-0.222667,-0.207111,-0.169778,-0.12,-0.088889,-0.029778,0.032444,0.088444,0.116444,0.172444,0.203556,0.262667,0.328,0.362222,0.430667,0.499111,0.530222,0.595556,0.654667,0.704444,0.726222,0.760444,0.772889,0.794667,0.807111,0.816444,0.819556,0.819556,0.819556,0.819556,0.816444,0.810222,0.807111,0.794667,0.785333,0.769778,0.754222,0.735556,0.726222,0.704444,0.692,0.667111,0.651556,0.648444,0.648444,0.660889,0.673333,0.704444,0.748,0.804,0.835111,0.900444,0.934667,0.990667,1.018667,1.018667,1.018667,1.018667,1.015556,1.015556,1.015556,1.018667,1.015556,1.003111,0.987556,0.947111,0.897333,0.844444,0.816444,0.763556,0.735556,0.679556,0.617333,0.583111,0.520889,0.458667,0.433778,0.390222,0.374667,0.352889,0.334222,0.318667,0.312444,0.306222,0.3,0.296889,0.290667,0.281333,0.278222,0.268889,0.262667,0.259556,0.253333,0.253333,0.253333,0.253333,0.250222,0.247111,0.240889,0.228444,0.225333,0.212889,0.203556,0.200444,0.194222,0.184889,0.178667,0.172444,0.169333,0.169333,0.166222,0.163111,0.16,0.153778,0.147556,0.144444,0.135111,0.125778,0.122667,0.113333,0.104,0.100889,0.091556,0.079111,0.076,0.063556,0.057333,0.054222,0.051111,0.044889,0.041778,0.038667,0.035556,0.032444]","[0.0006,0.0141,0.0339,0.0475,0.064,0.0807,0.0972,0.114,0.1307,0.1474,0.1641,0.1806,0.1973,0.2141,0.2309,0.2474,0.2642,0.2806,0.2975,0.3141,0.3309,0.3474,0.3643,0.3811,0.3977,0.4146,0.4311,0.4478,0.4644,0.4809,0.4976,0.5146,0.5313,0.5481,0.5647,0.581,0.5977,0.6145,0.6313,0.6478,0.6646,0.6811,0.6979,0.7146,0.7313,0.748,0.7647,0.7813,0.7978,0.8148,0.8315,0.8481,0.8649,0.8817,0.8984,0.915,0.9316,0.9483,0.9648,0.9816,0.9984,1.015,1.0317,1.0484,1.0649,1.0816,1.0982,1.1151,1.1319,1.1484,1.165,1.1819,1.1986,1.2152,1.232,1.2487,1.2651,1.2818,1.2987,1.3153,1.332,1.3486,1.3654,1.3822,1.3988,1.4155,1.432,1.4489,1.4653,1.482,1.499,1.5156,1.5324,1.5496,1.5656,1.5824,1.599,1.6156,1.6323,1.649,1.6656,1.6823,1.6991,1.7159,1.7316,1.7491,1.7656,1.7825,1.7992,1.815,1.8316,1.8491,1.865,1.8826,1.8984,1.9151,1.9318,1.9485,1.9652,1.9827,1.9985,2.0152,2.0319,2.0487,2.0661,2.0827,2.0987,2.1162,2.1321,2.1488,2.1655,2.1821,2.1988,2.2154,2.2321,2.2489,2.2657,2.2823,2.2989,2.3156,2.3323,2.349,2.3656,2.3823,2.399,2.4157,2.4322,2.4491,2.4657,2.4823,2.4989,2.5158,2.5325,2.5491,2.5656,2.5824,2.5991,2.6159,2.6326,2.6493,2.6658,2.6826,2.6992,2.7161,2.7327,2.7492,2.766,2.7826,2.7994,2.8159,2.8327,2.8496,2.8662]","[1,1,1,1,1,1,1,1,1,1,1,1,1,1,1,1,1,1,1,1,1,1,1,1,1,1,1,1,1,1,1,1,1,1,1,1,1,1,1,1,1,1,1,1,1,1,1,1,1,1,1,1,1,1,1,1,1,1,1,1,1,1,1,1,1,1,1,1,1,1,1,1,1,1,1,1,1,1,1,1,1,1,1,1,1,1,1,1,1,1,1,1,2,2,2,2,2,2,2,2,2,2,2,2,2,2,2,2,2,2,2,2,2,2,2,2,2,2,2,2,2,2,2,2,2,2,2,2,2,2,2,2,2,2,2,2,2,2,2,2,2,2,2,2,2,2,2,2,2,2,2,2,2,2,2,2,2,2,2,2,2,2,2,2,2,2,2,2,2,2,2,2,2]",10,51.468,4,19,0,19,0,1,Zeenat,4,SV_6SxWlNLsoRj8nqK,304B,2022-06-17_15h03.05.787,implicit_time,2021.1.4,Linux x86_64,59.95563283
cursorjump,75,0,0.5,10,NA,0,NA,0,1,0.5,FALSE,practice,1,"[0.002083,0.002083,0,0,0,0,-0.002083,-0.002083,-0.002083,-0.002083,-0.004167,-0.004167,-0.004167,-0.004167,-0.004167,-0.004167,-0.004167,-0.004167,-0.004167,-0.004167,-0.004167,-0.004167,-0.00625,-0.008333,-0.010417,-0.010417,-0.0125,-0.010417,-0.00625,-0.002083,0.0125,0.033333,0.047917,0.08125,0.122917,0.145833,0.195833,0.252083,0.283333,0.35,0.414583,0.447917,0.452083,0.44375,0.441667,0.435417,0.433333,0.433333,0.43125,0.43125,0.429167,0.420833,0.410417,0.379167,0.3375,0.31875,0.2875,0.266667,0.25625,0.233333,0.20625,0.19375,0.16875,0.152083,0.14375,0.13125,0.11875,0.1125,0.1,0.0875,0.08125,0.072917,0.064583,0.060417,0.052083,0.045833,0.041667,0.0375,0.033333,0.03125,0.029167,0.027083,0.025,0.022917,0.020833,0.01875,0.01875,0.01875,0.01875,0.01875,0.01875,0.01875,0.020833,0.020833,0.020833,0.022917,0.025,0.025]","[-0.004889,-0.004889,-0.001778,0.001333,0.001333,0.001333,0.001333,0.001333,0.001333,0.004444,0.004444,0.004444,0.004444,0.004444,0.004444,0.004444,0.004444,0.004444,0.004444,0.004444,0.004444,0.004444,0.007556,0.010667,0.016889,0.023111,0.029333,0.044889,0.069778,0.088444,0.138222,0.200444,0.237778,0.321778,0.412,0.458667,0.558222,0.657778,0.707556,0.797778,0.875556,0.919111,0.928444,0.925333,0.925333,0.925333,0.925333,0.925333,0.925333,0.928444,0.928444,0.919111,0.906667,0.869333,0.822667,0.797778,0.751111,0.704444,0.679556,0.620444,0.558222,0.527111,0.468,0.418222,0.396444,0.356,0.318667,0.3,0.268889,0.247111,0.240889,0.228444,0.219111,0.216,0.200444,0.188,0.178667,0.166222,0.147556,0.132,0.122667,0.107111,0.097778,0.088444,0.079111,0.076,0.072889,0.072889,0.072889,0.072889,0.069778,0.063556,0.063556,0.057333,0.054222,0.048,0.038667,0.026222]","[0.0007,0.0168,0.033,0.0496,0.0664,0.0831,0.0998,0.1165,0.133,0.1499,0.1666,0.1832,0.1997,0.2166,0.233,0.2498,0.2666,0.2833,0.3,0.3165,0.3331,0.3501,0.3668,0.3835,0.4002,0.4169,0.4333,0.4502,0.467,0.4834,0.5002,0.517,0.5336,0.5503,0.567,0.5838,0.5993,0.6169,0.6327,0.6495,0.6669,0.6852,0.6996,0.7171,0.7337,0.7496,0.7671,0.7837,0.7998,0.8164,0.8339,0.8506,0.8671,0.8831,0.9005,0.9164,0.9333,0.9498,0.9664,0.9831,0.9997,1.0167,1.0333,1.0515,1.0666,1.0833,1.0999,1.1166,1.1354,1.1502,1.1667,1.1832,1.2002,1.2168,1.2336,1.25,1.2669,1.2835,1.3002,1.317,1.3336,1.3503,1.367,1.3836,1.4005,1.4168,1.4337,1.4503,1.4672,1.4838,1.5005,1.5171,1.5338,1.5506,1.567,1.5839,1.6005,1.6172]","[1,1,1,1,1,1,1,1,1,1,1,1,1,1,1,1,1,1,1,1,1,1,1,1,1,1,1,1,1,1,1,1,1,1,1,1,1,1,1,1,2,2,2,2,2,2,2,2,2,2,2,2,2,2,2,2,2,2,2,2,2,2,2,2,2,2,2,2,2,2,2,2,2,2,2,2,2,2,2,2,2,2,2,2,2,2,2,2,2,2,2,2,2,2,2,2,2,2]",11,53.6028,4,20,0,20,0,1,Zeenat,4,SV_6SxWlNLsoRj8nqK,304B,2022-06-17_15h03.05.787,implicit_time,2021.1.4,Linux x86_64,59.95563283
cursorjump,82.5,0,0,10,NA,0,NA,0,0,0.5,FALSE,practice,0,"[0.020833,0.020833,0.020833,0.020833,0.020833,0.020833,0.020833,0.020833,0.020833,0.020833,0.020833,0.020833,0.020833,0.020833,0.020833,0.020833,0.020833,0.020833,0.020833,0.020833,0.020833,0.01875,0.016667,0.014583,0.016667,0.022917,0.027083,0.045833,0.075,0.091667,0.129167,0.166667,0.185417,0.216667,0.245833,0.258333,0.277083,0.283333,0.283333,0.28125,0.28125,0.28125,0.28125,0.28125,0.28125,0.279167,0.26875,0.2625,0.241667,0.220833,0.210417,0.191667,0.172917,0.164583,0.152083,0.139583,0.133333,0.125,0.116667,0.114583,0.1125,0.1125,0.1125,0.110417,0.108333,0.108333,0.10625,0.10625,0.10625,0.102083,0.097917,0.095833,0.089583,0.0875,0.083333,0.079167,0.075,0.075,0.072917,0.072917,0.072917,0.072917,0.072917,0.070833,0.06875,0.066667,0.0625,0.058333,0.052083,0.05,0.045833,0.041667,0.039583,0.0375,0.035417,0.035417,0.033333,0.033333,0.033333,0.033333,0.033333,0.033333,0.03125,0.027083,0.027083,0.025,0.025,0.025,0.022917,0.022917,0.022917,0.022917,0.022917,0.022917,0.022917,0.022917,0.022917,0.022917,0.022917,0.022917,0.020833,0.020833,0.020833,0.020833,0.020833,0.020833,0.020833,0.01875,0.01875,0.016667,0.016667,0.014583,0.0125]","[-0.011111,-0.014222,-0.014222,-0.014222,-0.014222,-0.014222,-0.014222,-0.014222,-0.014222,-0.014222,-0.014222,-0.014222,-0.014222,-0.014222,-0.014222,-0.014222,-0.014222,-0.014222,-0.014222,-0.011111,-0.004889,0.007556,0.032444,0.048,0.094667,0.163111,0.206667,0.3,0.408889,0.464889,0.58,0.688889,0.735556,0.816444,0.881778,0.912889,0.962667,0.990667,0.993778,0.993778,0.993778,0.993778,0.993778,0.993778,0.993778,0.984444,0.962667,0.947111,0.903556,0.853778,0.828889,0.776,0.716889,0.682667,0.614222,0.555111,0.530222,0.489778,0.452444,0.433778,0.399556,0.387111,0.359111,0.334222,0.309333,0.296889,0.275111,0.265778,0.244,0.219111,0.197333,0.188,0.169333,0.163111,0.147556,0.132,0.116444,0.110222,0.097778,0.094667,0.088444,0.079111,0.066667,0.060444,0.051111,0.044889,0.035556,0.023111,0.010667,0.001333,-0.008,-0.014222,-0.020444,-0.026667,-0.029778,-0.032889,-0.032889,-0.036,-0.036,-0.036,-0.036,-0.036,-0.036,-0.036,-0.039111,-0.039111,-0.039111,-0.039111,-0.039111,-0.039111,-0.039111,-0.039111,-0.039111,-0.039111,-0.039111,-0.039111,-0.039111,-0.039111,-0.042222,-0.042222,-0.042222,-0.042222,-0.042222,-0.042222,-0.042222,-0.042222,-0.042222,-0.042222,-0.042222,-0.042222,-0.042222,-0.039111,-0.039111]","[0.0002,0.0177,0.0404,0.057,0.067,0.0832,0.1004,0.1171,0.1338,0.1502,0.1671,0.1838,0.2002,0.217,0.2339,0.2506,0.2674,0.2837,0.3005,0.3174,0.3342,0.3507,0.3673,0.384,0.4011,0.4177,0.4342,0.451,0.468,0.4843,0.5014,0.5177,0.5345,0.5512,0.568,0.5848,0.6013,0.6181,0.6347,0.6514,0.6704,0.6839,0.7011,0.7173,0.7341,0.7507,0.7682,0.7847,0.8015,0.818,0.8348,0.8514,0.8684,0.8849,0.9014,0.9193,0.9351,0.9515,0.9685,0.9847,1.0015,1.0183,1.0349,1.0518,1.0681,1.0844,1.101,1.1179,1.1344,1.1512,1.168,1.1848,1.2013,1.2206,1.2357,1.2517,1.2684,1.2847,1.3014,1.3182,1.3348,1.3514,1.3682,1.385,1.4016,1.4185,1.4347,1.4514,1.4685,1.4848,1.5017,1.5185,1.5349,1.5519,1.5684,1.585,1.6016,1.6186,1.635,1.6512,1.6685,1.6848,1.7021,1.7188,1.7354,1.752,1.7688,1.7853,1.802,1.8184,1.8355,1.8518,1.8686,1.8851,1.9018,1.9188,1.935,1.9522,1.9689,1.9852,2.0022,2.0189,2.0354,2.0521,2.0685,2.0852,2.1022,2.1192,2.1355,2.1524,2.169,2.1856,2.2024]","[1,1,1,1,1,1,1,1,1,1,1,1,1,1,1,1,1,1,1,1,1,1,1,1,1,1,1,1,1,1,1,1,1,1,1,1,2,2,2,2,2,2,2,2,2,2,2,2,2,2,2,2,2,2,2,2,2,2,2,2,2,2,2,2,2,2,2,2,2,2,2,2,2,2,2,2,2,2,2,2,2,2,2,2,2,2,2,2,2,2,2,2,2,2,2,2,2,2,2,2,2,2,2,2,2,2,2,2,2,2,2,2,2,2,2,2,2,2,2,2,2,2,2,2,2,2,2,2,2,2,2,2,2]",11,56.3222,4,21,0,21,0,1,Zeenat,4,SV_6SxWlNLsoRj8nqK,304B,2022-06-17_15h03.05.787,implicit_time,2021.1.4,Linux x86_64,59.95563283
cursorjump,45,0,0.5,10,NA,0,NA,0,1,0.5,FALSE,practice,1,"[-0.01875,-0.01875,-0.01875,-0.01875,-0.01875,-0.016667,-0.016667,-0.014583,-0.0125,-0.010417,-0.00625,-0.002083,0,0.002083,0.002083,0.004167,0.00625,0.00625,0.00625,0.00625,0.00625,0.00625,0.00625,0.00625,0.00625,0.00625,0.00625,0.00625,0.010417,0.01875,0.035417,0.05,0.089583,0.1125,0.16875,0.233333,0.26875,0.347917,0.433333,0.475,0.558333,0.635417,0.670833,0.7125,0.722917,0.722917,0.725,0.727083,0.725,0.716667,0.69375,0.664583,0.65,0.620833,0.608333,0.577083,0.541667,0.504167,0.4875,0.45,0.43125,0.389583,0.34375,0.297917,0.279167,0.24375,0.229167,0.204167,0.185417,0.16875,0.1625,0.152083,0.147917,0.139583,0.133333,0.129167,0.127083,0.120833,0.11875,0.110417,0.1,0.089583,0.083333,0.075,0.070833,0.0625,0.058333,0.052083,0.047917,0.041667,0.039583,0.035417]","[-0.026667,-0.026667,-0.026667,-0.026667,-0.026667,-0.026667,-0.023556,-0.020444,-0.014222,-0.011111,-0.004889,0.001333,0.004444,0.004444,0.007556,0.007556,0.010667,0.010667,0.010667,0.010667,0.010667,0.010667,0.007556,0.007556,0.007556,0.007556,0.007556,0.010667,0.013778,0.026222,0.051111,0.066667,0.113333,0.141333,0.209778,0.296889,0.343556,0.443111,0.536444,0.58,0.654667,0.710667,0.735556,0.760444,0.766667,0.766667,0.766667,0.763556,0.763556,0.757333,0.744889,0.732444,0.726222,0.707556,0.698222,0.673333,0.645333,0.614222,0.601778,0.564444,0.545778,0.502222,0.455556,0.408889,0.387111,0.352889,0.340444,0.312444,0.290667,0.268889,0.256444,0.237778,0.228444,0.212889,0.197333,0.181778,0.175556,0.163111,0.156889,0.141333,0.125778,0.107111,0.097778,0.079111,0.069778,0.054222,0.041778,0.029333,0.026222,0.02,0.016889,0.010667]","[0.0006,0.0155,0.0327,0.0492,0.0657,0.0823,0.0995,0.1162,0.1326,0.1495,0.1662,0.1825,0.1997,0.2166,0.2327,0.2499,0.2662,0.283,0.2998,0.3159,0.3327,0.3498,0.366,0.3829,0.3998,0.416,0.4327,0.4501,0.4663,0.4831,0.4998,0.5164,0.533,0.55,0.5664,0.5834,0.6001,0.6164,0.6332,0.65,0.6665,0.6834,0.7,0.7189,0.7336,0.7501,0.7665,0.7833,0.8001,0.8169,0.8334,0.8505,0.8668,0.8836,0.9003,0.9168,0.9335,0.9504,0.967,0.9854,1.001,1.0174,1.0341,1.0512,1.0672,1.0842,1.1006,1.1172,1.1343,1.1512,1.1674,1.184,1.2007,1.2188,1.2343,1.2511,1.2674,1.2841,1.3009,1.3174,1.3341,1.3509,1.3678,1.3842,1.4009,1.4177,1.4342,1.451,1.4676,1.4844,1.501,1.5176]","[1,1,1,1,1,1,1,1,1,1,1,1,1,1,1,1,1,1,1,1,1,1,1,1,1,1,1,1,1,1,1,1,1,1,1,1,1,1,1,1,1,1,2,2,2,2,2,2,2,2,2,2,2,2,2,2,2,2,2,2,2,2,2,2,2,2,2,2,2,2,2,2,2,2,2,2,2,2,2,2,2,2,2,2,2,2,2,2,2,2,2,2]",12,58.358,4,22,0,22,0,1,Zeenat,4,SV_6SxWlNLsoRj8nqK,304B,2022-06-17_15h03.05.787,implicit_time,2021.1.4,Linux x86_64,59.95563283
cursorjump,37.5,0,0,10,NA,0,NA,0,0,0.5,FALSE,practice,0,"[0.004167,0.004167,0.004167,0.004167,0.004167,0.004167,0.004167,0.004167,0.004167,0.004167,0.004167,0.004167,0.004167,0.002083,0.002083,0.002083,0.002083,0.002083,0.002083,0.002083,0.002083,0.00625,0.008333,0.01875,0.0375,0.05,0.085417,0.13125,0.195833,0.233333,0.320833,0.366667,0.460417,0.554167,0.641667,0.679167,0.75,0.78125,0.835417,0.86875,0.88125,0.88125,0.88125,0.88125,0.883333,0.885417,0.885417,0.883333,0.870833,0.858333,0.81875,0.764583,0.704167,0.675,0.61875,0.591667,0.539583,0.483333,0.454167,0.395833,0.341667,0.31875,0.275,0.239583,0.222917,0.19375,0.16875,0.15625,0.133333,0.1125,0.102083,0.085417,0.072917,0.066667,0.05625,0.052083,0.045833,0.0375,0.029167,0.025,0.016667,0.014583,0.008333,0.004167,0.002083,0,-0.004167,-0.008333,-0.008333,-0.0125,-0.014583,-0.014583,-0.016667,-0.016667,-0.016667,-0.01875,-0.016667,-0.016667,-0.014583]","[-0.026667,-0.026667,-0.026667,-0.026667,-0.026667,-0.029778,-0.029778,-0.029778,-0.029778,-0.029778,-0.029778,-0.029778,-0.029778,-0.029778,-0.029778,-0.026667,-0.026667,-0.026667,-0.026667,-0.026667,-0.023556,-0.020444,-0.017333,-0.004889,0.010667,0.023111,0.057333,0.097778,0.150667,0.178667,0.244,0.278222,0.343556,0.402667,0.455556,0.474222,0.511556,0.530222,0.558222,0.58,0.583111,0.583111,0.583111,0.583111,0.583111,0.583111,0.583111,0.583111,0.576889,0.573778,0.561333,0.542667,0.517778,0.505333,0.480444,0.468,0.44,0.408889,0.393333,0.362222,0.331111,0.315556,0.287556,0.262667,0.253333,0.231556,0.212889,0.206667,0.191111,0.178667,0.172444,0.16,0.150667,0.144444,0.135111,0.132,0.122667,0.113333,0.107111,0.104,0.097778,0.094667,0.091556,0.088444,0.085333,0.085333,0.079111,0.076,0.076,0.072889,0.069778,0.066667,0.063556,0.060444,0.057333,0.051111,0.044889,0.041778,0.032444]","[0.0005,0.0173,0.0335,0.0502,0.067,0.0835,0.108,0.1181,0.1351,0.1522,0.1691,0.184,0.2015,0.2179,0.234,0.2506,0.2675,0.284,0.3007,0.3174,0.3338,0.3506,0.3675,0.3842,0.4009,0.4174,0.4345,0.4513,0.4681,0.4848,0.5012,0.5182,0.5346,0.5514,0.5681,0.5849,0.6052,0.6183,0.6348,0.6516,0.6684,0.6848,0.7016,0.7188,0.7352,0.7519,0.7685,0.7844,0.8018,0.8185,0.8352,0.852,0.8687,0.8852,0.9017,0.9185,0.9352,0.9588,0.9694,0.9854,1.0026,1.0191,1.0362,1.0522,1.0685,1.0853,1.1016,1.1184,1.1367,1.152,1.1685,1.1852,1.2018,1.2186,1.235,1.2518,1.2687,1.2851,1.3017,1.3185,1.3351,1.3519,1.3685,1.3853,1.4018,1.4185,1.4351,1.4521,1.4687,1.4853,1.5018,1.5187,1.5354,1.5523,1.5687,1.5855,1.6021,1.6188,1.6354]","[1,1,1,1,1,1,1,1,1,1,1,1,1,1,1,1,1,1,1,1,1,1,1,1,1,1,1,1,1,1,1,1,1,1,1,1,1,1,2,2,2,2,2,2,2,2,2,2,2,2,2,2,2,2,2,2,2,2,2,2,2,2,2,2,2,2,2,2,2,2,2,2,2,2,2,2,2,2,2,2,2,2,2,2,2,2,2,2,2,2,2,2,2,2,2,2,2,2,2]",12,60.5105,4,23,0,23,0,1,Zeenat,4,SV_6SxWlNLsoRj8nqK,304B,2022-06-17_15h03.05.787,implicit_time,2021.1.4,Linux x86_64,59.95563283
cursorjump,105,0,0.5,10,NA,0,NA,0,1,0.5,FALSE,practice,1,"[0,0,0,0,0,0,0,0,0,0,0,0,0,0,0,0,-0.002083,-0.002083,-0.004167,-0.00625,-0.008333,-0.0125,-0.022917,-0.039583,-0.064583,-0.079167,-0.1125,-0.13125,-0.164583,-0.195833,-0.220833,-0.229167,-0.241667,-0.245833,-0.254167,-0.260417,-0.26875,-0.275,-0.285417,-0.295833,-0.3,-0.308333,-0.316667,-0.31875,-0.320833,-0.322917,-0.320833,-0.31875,-0.316667,-0.314583,-0.3125,-0.304167,-0.297917,-0.285417,-0.26875,-0.260417,-0.2375,-0.210417,-0.195833,-0.170833,-0.160417,-0.141667,-0.122917,-0.10625,-0.097917,-0.08125,-0.075,-0.0625,-0.05,-0.0375,-0.033333,-0.025,-0.01875,-0.008333,0.004167,0.016667,0.01875,0.022917,0.022917,0.020833,0.016667,0.014583,0.0125,0.0125,0.0125,0.010417,0.010417,0.010417,0.010417,0.0125,0.014583,0.016667,0.016667,0.016667,0.016667,0.014583,0.014583,0.016667,0.01875]","[-0.008,-0.008,-0.008,-0.008,-0.008,-0.008,-0.008,-0.008,-0.008,-0.008,-0.008,-0.008,-0.004889,-0.004889,-0.001778,-0.001778,0.001333,0.004444,0.007556,0.010667,0.023111,0.029333,0.051111,0.088444,0.144444,0.175556,0.253333,0.296889,0.384,0.474222,0.573778,0.620444,0.710667,0.751111,0.819556,0.869333,0.903556,0.916,0.934667,0.940889,0.944,0.944,0.944,0.940889,0.940889,0.940889,0.940889,0.944,0.940889,0.940889,0.934667,0.922222,0.912889,0.884889,0.850667,0.832,0.791556,0.741778,0.713778,0.654667,0.626667,0.567556,0.517778,0.474222,0.452444,0.412,0.393333,0.359111,0.321778,0.287556,0.268889,0.237778,0.222222,0.194222,0.169333,0.153778,0.147556,0.138222,0.132,0.125778,0.116444,0.107111,0.100889,0.088444,0.082222,0.072889,0.066667,0.063556,0.060444,0.060444,0.060444,0.057333,0.051111,0.051111,0.048,0.048,0.044889,0.038667,0.029333]","[0.0006,0.0165,0.0326,0.0489,0.0662,0.0827,0.0993,0.1163,0.1328,0.1494,0.1664,0.183,0.1996,0.2165,0.233,0.2497,0.2665,0.2831,0.2997,0.3166,0.3332,0.3498,0.3667,0.3833,0.3999,0.4166,0.4332,0.4499,0.4669,0.4834,0.4999,0.5167,0.5334,0.55,0.5669,0.5834,0.6001,0.6168,0.6333,0.6527,0.6673,0.6835,0.7004,0.717,0.7337,0.7502,0.7671,0.7839,0.8013,0.8182,0.8342,0.851,0.8676,0.8839,0.9005,0.9174,0.934,0.9508,0.9675,0.9839,1.0005,1.0174,1.0339,1.0508,1.0676,1.0839,1.1007,1.1175,1.134,1.1512,1.1678,1.184,1.2007,1.2184,1.2342,1.2511,1.2678,1.2844,1.3012,1.3177,1.3344,1.351,1.368,1.3846,1.4011,1.4179,1.4344,1.4514,1.4681,1.4845,1.5013,1.518,1.5355,1.5511,1.5679,1.5845,1.6012,1.6181,1.6345]","[1,1,1,1,1,1,1,1,1,1,1,1,1,1,1,1,1,1,1,1,1,1,1,1,1,1,1,1,1,1,1,1,1,1,1,1,1,1,2,2,2,2,2,2,2,2,2,2,2,2,2,2,2,2,2,2,2,2,2,2,2,2,2,2,2,2,2,2,2,2,2,2,2,2,2,2,2,2,2,2,2,2,2,2,2,2,2,2,2,2,2,2,2,2,2,2,2,2,2]",13,62.663,4,24,0,24,0,1,Zeenat,4,SV_6SxWlNLsoRj8nqK,304B,2022-06-17_15h03.05.787,implicit_time,2021.1.4,Linux x86_64,59.95563283
cursorjump,97.5,0,0,10,NA,0,NA,0,0,0.5,FALSE,practice,0,"[0.002083,0,-0.002083,-0.002083,-0.004167,-0.004167,-0.004167,-0.004167,-0.004167,-0.004167,-0.004167,-0.004167,-0.004167,-0.004167,-0.004167,-0.004167,-0.00625,-0.00625,-0.008333,-0.010417,-0.014583,-0.016667,-0.025,-0.039583,-0.047917,-0.070833,-0.1,-0.133333,-0.15,-0.18125,-0.19375,-0.210417,-0.21875,-0.216667,-0.210417,-0.204167,-0.197917,-0.179167,-0.15625,-0.135417,-0.125,-0.108333,-0.102083,-0.09375,-0.0875,-0.085417,-0.083333,-0.085417,-0.0875,-0.091667,-0.097917,-0.108333,-0.114583,-0.125,-0.13125,-0.139583,-0.14375,-0.145833,-0.147917,-0.145833,-0.145833,-0.1375,-0.127083,-0.1125,-0.10625,-0.091667,-0.085417,-0.075,-0.066667,-0.064583,-0.058333,-0.052083,-0.047917,-0.039583,-0.03125,-0.027083,-0.020833,-0.016667,-0.014583,-0.014583,-0.016667,-0.01875,-0.020833,-0.022917,-0.022917,-0.025,-0.025,-0.025,-0.022917]","[-0.004889,-0.008,-0.011111,-0.011111,-0.011111,-0.011111,-0.011111,-0.011111,-0.011111,-0.011111,-0.011111,-0.011111,-0.011111,-0.011111,-0.011111,-0.011111,-0.014222,-0.014222,-0.014222,-0.011111,-0.008,-0.001778,0.013778,0.041778,0.060444,0.113333,0.181778,0.262667,0.303111,0.380889,0.418222,0.486667,0.552,0.611111,0.667111,0.695111,0.72,0.772889,0.825778,0.872444,0.894222,0.931556,0.947111,0.972,0.987556,0.996889,1,1.003111,1.006222,1.003111,0.996889,0.984444,0.975111,0.956444,0.947111,0.931556,0.912889,0.881778,0.841333,0.816444,0.791556,0.729333,0.660889,0.586222,0.548889,0.483556,0.452444,0.393333,0.340444,0.312444,0.259556,0.212889,0.194222,0.163111,0.138222,0.128889,0.107111,0.091556,0.082222,0.072889,0.066667,0.063556,0.057333,0.051111,0.048,0.044889,0.041778,0.038667,0.026222]","[0.0005,0.0175,0.0333,0.0493,0.0667,0.0833,0.0999,0.1167,0.1331,0.1499,0.167,0.1832,0.1995,0.2167,0.2332,0.2501,0.267,0.2836,0.3002,0.3169,0.3335,0.3501,0.3669,0.3837,0.4007,0.4176,0.4342,0.4508,0.4678,0.4843,0.5009,0.5178,0.5343,0.5512,0.5704,0.5844,0.601,0.6178,0.6345,0.6586,0.6688,0.6849,0.7018,0.7184,0.7347,0.7518,0.7683,0.7847,0.8014,0.8183,0.8348,0.852,0.8687,0.8848,0.9016,0.9185,0.9348,0.9518,0.9707,0.9851,1.0016,1.0186,1.0352,1.0515,1.0681,1.085,1.1017,1.1183,1.1353,1.1516,1.1678,1.1846,1.2012,1.218,1.2349,1.2512,1.2679,1.2851,1.3013,1.3179,1.3348,1.3513,1.3683,1.3849,1.4014,1.4183,1.4352,1.4515,1.4683]","[1,1,1,1,1,1,1,1,1,1,1,1,1,1,1,1,1,1,1,1,1,1,1,1,1,1,1,1,1,1,1,1,1,1,1,1,1,1,1,1,1,1,1,2,2,2,2,2,2,2,2,2,2,2,2,2,2,2,2,2,2,2,2,2,2,2,2,2,2,2,2,2,2,2,2,2,2,2,2,2,2,2,2,2,2,2,2,2,2]",13,64.649,4,25,0,25,0,1,Zeenat,4,SV_6SxWlNLsoRj8nqK,304B,2022-06-17_15h03.05.787,implicit_time,2021.1.4,Linux x86_64,59.95563283
cursorjump,75,0,0.5,10,NA,0,NA,0,1,0.5,FALSE,practice,1,"[0.01875,0.01875,0.01875,0.01875,0.016667,0.016667,0.014583,0.014583,0.014583,0.014583,0.014583,0.0125,0.010417,0.008333,0.00625,0.00625,0.004167,0.004167,0.004167,0.004167,0.004167,0.002083,0.002083,0.002083,0.002083,0,-0.002083,-0.002083,-0.002083,0,0.004167,0.014583,0.039583,0.079167,0.10625,0.175,0.258333,0.30625,0.397917,0.447917,0.454167,0.445833,0.4375,0.433333,0.429167,0.427083,0.425,0.4125,0.389583,0.375,0.34375,0.310417,0.291667,0.25625,0.220833,0.204167,0.175,0.147917,0.133333,0.104167,0.077083,0.064583,0.045833,0.033333,0.027083,0.016667,0.008333,0.002083,-0.00625,-0.0125,-0.016667,-0.020833,-0.025,-0.027083,-0.029167,-0.03125,-0.033333,-0.035417,-0.035417,-0.0375,-0.0375,-0.0375,-0.0375]","[-0.020444,-0.020444,-0.020444,-0.020444,-0.017333,-0.014222,-0.014222,-0.011111,-0.011111,-0.011111,-0.011111,-0.011111,-0.011111,-0.008,-0.008,-0.011111,-0.011111,-0.011111,-0.011111,-0.011111,-0.011111,-0.014222,-0.014222,-0.014222,-0.014222,-0.011111,-0.001778,0.016889,0.029333,0.069778,0.097778,0.178667,0.281333,0.405778,0.474222,0.614222,0.738667,0.794667,0.884889,0.928444,0.937778,0.937778,0.940889,0.940889,0.944,0.944,0.944,0.931556,0.909778,0.891111,0.850667,0.797778,0.769778,0.713778,0.657778,0.629778,0.576889,0.520889,0.489778,0.427556,0.365333,0.337333,0.284444,0.244,0.225333,0.194222,0.172444,0.166222,0.150667,0.138222,0.132,0.122667,0.113333,0.107111,0.094667,0.085333,0.079111,0.066667,0.054222,0.044889,0.032444,0.02,0.016889]","[0.0006,0.0165,0.0327,0.0495,0.0659,0.0826,0.0997,0.1159,0.1326,0.1497,0.166,0.1828,0.1997,0.2163,0.2328,0.2499,0.2661,0.2828,0.301,0.3166,0.3331,0.3499,0.3695,0.3837,0.4,0.4166,0.4334,0.4499,0.4665,0.4833,0.5,0.5165,0.5334,0.5502,0.5666,0.5832,0.6003,0.6165,0.6334,0.653,0.6669,0.6833,0.7006,0.7167,0.7334,0.7504,0.7669,0.7836,0.8007,0.8171,0.8336,0.8506,0.8669,0.8836,0.9005,0.9172,0.9339,0.9506,0.967,0.9839,1.0007,1.0172,1.0337,1.0506,1.0672,1.0837,1.1009,1.1174,1.1339,1.1507,1.1674,1.1839,1.2011,1.2176,1.234,1.2509,1.2673,1.2843,1.3011,1.3174,1.3343,1.351,1.3676]","[1,1,1,1,1,1,1,1,1,1,1,1,1,1,1,1,1,1,1,1,1,1,1,1,1,1,1,1,1,1,1,1,1,1,1,1,1,1,2,2,2,2,2,2,2,2,2,2,2,2,2,2,2,2,2,2,2,2,2,2,2,2,2,2,2,2,2,2,2,2,2,2,2,2,2,2,2,2,2,2,2,2,2]",14,66.5345,4,26,0,26,0,1,Zeenat,4,SV_6SxWlNLsoRj8nqK,304B,2022-06-17_15h03.05.787,implicit_time,2021.1.4,Linux x86_64,59.95563283
cursorjump,82.5,0,0,10,NA,0,NA,0,0,0.5,FALSE,practice,0,"[-0.004167,-0.004167,-0.004167,-0.004167,-0.004167,-0.004167,-0.004167,-0.002083,-0.002083,0,0,0,0,0.002083,0.002083,0.002083,0.002083,0.002083,0.002083,0,0,0,-0.002083,-0.002083,-0.002083,0.002083,0.00625,0.020833,0.041667,0.054167,0.08125,0.114583,0.13125,0.1625,0.183333,0.1875,0.189583,0.1875,0.1875,0.185417,0.183333,0.183333,0.179167,0.177083,0.175,0.170833,0.160417,0.154167,0.139583,0.13125,0.114583,0.097917,0.079167,0.070833,0.052083,0.04375,0.029167,0.016667,0.008333,0.004167,-0.002083,-0.004167,-0.00625,-0.008333,-0.010417,-0.0125,-0.014583,-0.016667,-0.01875,-0.020833,-0.025,-0.025,-0.027083,-0.027083,-0.027083,-0.027083,-0.027083,-0.027083,-0.025]","[-0.004889,-0.004889,-0.004889,-0.004889,-0.004889,-0.004889,-0.004889,-0.004889,-0.008,-0.011111,-0.014222,-0.017333,-0.020444,-0.020444,-0.020444,-0.020444,-0.020444,-0.020444,-0.017333,-0.014222,-0.008,0.007556,0.02,0.057333,0.116444,0.203556,0.256444,0.377778,0.502222,0.567556,0.692,0.800889,0.850667,0.925333,0.978222,0.996889,1.015556,1.015556,1.015556,1.015556,1.015556,1.015556,1.015556,1.015556,1.012444,0.993778,0.956444,0.931556,0.875556,0.847556,0.785333,0.72,0.648444,0.608,0.533333,0.499111,0.433778,0.377778,0.328,0.309333,0.272,0.259556,0.228444,0.203556,0.178667,0.169333,0.150667,0.141333,0.122667,0.107111,0.088444,0.082222,0.066667,0.060444,0.048,0.041778,0.035556,0.032444,0.029333]","[0.0005,0.0174,0.033,0.0495,0.0663,0.0831,0.0997,0.1164,0.133,0.1499,0.1667,0.1831,0.1999,0.2166,0.2326,0.2496,0.2661,0.2832,0.2999,0.3167,0.3331,0.35,0.3667,0.3833,0.4007,0.4173,0.4339,0.4506,0.4674,0.4839,0.501,0.5176,0.5341,0.5507,0.5679,0.5844,0.6008,0.6177,0.6343,0.6505,0.6679,0.6844,0.7003,0.7178,0.7345,0.7511,0.7679,0.7865,0.8011,0.8178,0.8344,0.8512,0.8679,0.8845,0.9011,0.9179,0.9363,0.9517,0.9699,0.9847,1.0009,1.0176,1.0342,1.0507,1.0677,1.0842,1.1009,1.1177,1.1343,1.151,1.1679,1.1842,1.2012,1.2177,1.2379,1.2521,1.2683,1.2844,1.3011]","[1,1,1,1,1,1,1,1,1,1,1,1,1,1,1,1,1,1,1,1,1,1,1,1,1,1,1,1,1,1,1,1,1,1,2,2,2,2,2,2,2,2,2,2,2,2,2,2,2,2,2,2,2,2,2,2,2,2,2,2,2,2,2,2,2,2,2,2,2,2,2,2,2,2,2,2,2,2,2]",14,68.3533,4,27,0,27,0,1,Zeenat,4,SV_6SxWlNLsoRj8nqK,304B,2022-06-17_15h03.05.787,implicit_time,2021.1.4,Linux x86_64,59.95563283
cursorjump,45,0,0.5,10,NA,0,NA,0,1,0.5,FALSE,practice,1,"[-0.002083,-0.002083,0,0,0.002083,0.002083,0.002083,0.004167,0.004167,0.004167,0.004167,0.004167,0.004167,0.004167,0.004167,0.004167,0.004167,0.004167,0.004167,0.004167,0.004167,0.004167,0.004167,0.004167,0.004167,0.004167,0.004167,0.004167,0.00625,0.014583,0.033333,0.045833,0.08125,0.10625,0.166667,0.245833,0.339583,0.391667,0.50625,0.566667,0.685417,0.779167,0.825,0.83125,0.829167,0.827083,0.829167,0.829167,0.829167,0.827083,0.808333,0.791667,0.7375,0.677083,0.616667,0.589583,0.533333,0.50625,0.45,0.397917,0.35,0.325,0.28125,0.2625,0.227083,0.197917,0.170833,0.158333,0.13125,0.11875,0.097917,0.083333,0.070833,0.066667,0.05625,0.052083,0.045833,0.039583,0.039583,0.035417,0.03125,0.03125,0.027083,0.025,0.022917,0.01875]","[-0.026667,-0.026667,-0.023556,-0.023556,-0.023556,-0.023556,-0.020444,-0.017333,-0.014222,-0.011111,-0.011111,-0.008,-0.008,-0.004889,-0.001778,-0.001778,-0.001778,-0.001778,0.001333,0.001333,0.001333,0.001333,0.001333,-0.001778,-0.001778,-0.001778,-0.001778,-0.001778,0.004444,0.016889,0.044889,0.066667,0.119556,0.150667,0.222222,0.3,0.374667,0.412,0.489778,0.527111,0.592444,0.642222,0.667111,0.673333,0.670222,0.670222,0.670222,0.670222,0.670222,0.670222,0.667111,0.664,0.651556,0.629778,0.604889,0.592444,0.564444,0.552,0.520889,0.483556,0.436889,0.415111,0.374667,0.356,0.328,0.296889,0.268889,0.253333,0.231556,0.219111,0.203556,0.188,0.172444,0.166222,0.150667,0.141333,0.122667,0.104,0.091556,0.072889,0.060444,0.054222,0.044889,0.038667,0.035556,0.029333]","[0.0005,0.0168,0.0332,0.0501,0.0665,0.0832,0.1,0.1165,0.1333,0.15,0.1666,0.1833,0.2001,0.217,0.2337,0.2501,0.2666,0.2829,0.3001,0.3168,0.3338,0.3502,0.3669,0.3836,0.4005,0.417,0.4335,0.4505,0.4669,0.4837,0.5006,0.5172,0.5338,0.5505,0.5671,0.5838,0.6009,0.617,0.634,0.6507,0.6672,0.6841,0.7043,0.7178,0.7342,0.7509,0.7674,0.7842,0.801,0.8175,0.8341,0.8509,0.8675,0.8842,0.9014,0.9179,0.9346,0.9511,0.9675,0.9845,1.006,1.0192,1.0346,1.0515,1.0677,1.0845,1.1015,1.1177,1.1345,1.1515,1.1678,1.1846,1.2016,1.2178,1.2346,1.2514,1.2679,1.2848,1.3017,1.3179,1.3347,1.3526,1.3684,1.3851,1.402,1.4182]","[1,1,1,1,1,1,1,1,1,1,1,1,1,1,1,1,1,1,1,1,1,1,1,1,1,1,1,1,1,1,1,1,1,1,1,1,1,1,1,1,1,2,2,2,2,2,2,2,2,2,2,2,2,2,2,2,2,2,2,2,2,2,2,2,2,2,2,2,2,2,2,2,2,2,2,2,2,2,2,2,2,2,2,2,2,2]",15,70.289,4,28,0,28,0,1,Zeenat,4,SV_6SxWlNLsoRj8nqK,304B,2022-06-17_15h03.05.787,implicit_time,2021.1.4,Linux x86_64,59.95563283
cursorjump,52.5,0,0,10,NA,0,NA,0,0,0.5,FALSE,practice,0,"[-0.002083,-0.004167,-0.004167,-0.004167,-0.004167,-0.004167,-0.004167,-0.004167,-0.004167,-0.004167,-0.004167,-0.004167,-0.004167,-0.004167,-0.004167,-0.004167,-0.002083,-0.002083,0,0.00625,0.010417,0.022917,0.033333,0.058333,0.09375,0.141667,0.16875,0.229167,0.264583,0.339583,0.425,0.472917,0.5625,0.622917,0.6375,0.641667,0.639583,0.639583,0.6375,0.6375,0.635417,0.629167,0.614583,0.604167,0.572917,0.535417,0.514583,0.470833,0.43125,0.410417,0.372917,0.333333,0.314583,0.272917,0.235417,0.21875,0.185417,0.158333,0.145833,0.125,0.104167,0.09375,0.077083,0.0625,0.05625,0.045833,0.0375,0.035417,0.029167,0.022917,0.01875,0.014583,0.0125,0.010417,0.008333,0.008333,0.008333,0.010417,0.010417,0.010417,0.010417]","[-0.004889,-0.004889,-0.004889,-0.004889,-0.004889,-0.004889,-0.004889,-0.004889,-0.004889,-0.004889,-0.004889,-0.004889,-0.004889,-0.004889,-0.004889,-0.004889,-0.004889,-0.001778,0.007556,0.02,0.029333,0.057333,0.076,0.122667,0.181778,0.253333,0.290667,0.374667,0.421333,0.517778,0.617333,0.667111,0.751111,0.810222,0.822667,0.828889,0.828889,0.828889,0.828889,0.832,0.832,0.835111,0.828889,0.822667,0.797778,0.757333,0.735556,0.688889,0.642222,0.617333,0.570667,0.520889,0.496,0.446222,0.396444,0.374667,0.331111,0.293778,0.278222,0.250222,0.228444,0.216,0.197333,0.175556,0.166222,0.150667,0.138222,0.128889,0.116444,0.100889,0.094667,0.085333,0.076,0.072889,0.066667,0.060444,0.057333,0.051111,0.044889,0.041778,0.035556]","[0.0006,0.0172,0.0329,0.0496,0.0658,0.0823,0.1012,0.1169,0.1324,0.1498,0.1664,0.1829,0.1995,0.2165,0.2329,0.2497,0.2666,0.283,0.3,0.3166,0.3331,0.3499,0.3672,0.3862,0.4005,0.4172,0.4336,0.4504,0.4672,0.484,0.5005,0.5173,0.534,0.5506,0.5674,0.5839,0.6007,0.6176,0.6336,0.6507,0.6677,0.684,0.7008,0.7175,0.7341,0.7508,0.7676,0.7842,0.8012,0.8201,0.8345,0.8509,0.8679,0.8843,0.9011,0.918,0.9342,0.951,0.9674,0.9838,1.0007,1.0174,1.0338,1.0506,1.0675,1.084,1.1006,1.1174,1.134,1.1506,1.1675,1.1841,1.2009,1.2176,1.234,1.2508,1.2676,1.2842,1.3011,1.3179,1.3342]","[1,1,1,1,1,1,1,1,1,1,1,1,1,1,1,1,1,1,1,1,1,1,1,1,1,1,1,1,1,1,1,1,1,2,2,2,2,2,2,2,2,2,2,2,2,2,2,2,2,2,2,2,2,2,2,2,2,2,2,2,2,2,2,2,2,2,2,2,2,2,2,2,2,2,2,2,2,2,2,2,2]",15,72.141,4,29,0,29,0,1,Zeenat,4,SV_6SxWlNLsoRj8nqK,304B,2022-06-17_15h03.05.787,implicit_time,2021.1.4,Linux x86_64,59.95563283
cursorjump,135,0,0.5,10,NA,0,NA,0,1,0.5,FALSE,practice,1,"[0.004167,0.004167,0.004167,0.004167,0.004167,0.004167,0.004167,0.004167,0.004167,0.004167,0.004167,0.004167,0.004167,0.004167,0.004167,0.004167,0.004167,0.004167,0.004167,0,-0.00625,-0.022917,-0.033333,-0.0625,-0.08125,-0.122917,-0.172917,-0.229167,-0.258333,-0.320833,-0.35,-0.410417,-0.470833,-0.525,-0.552083,-0.6,-0.620833,-0.660417,-0.7,-0.735417,-0.754167,-0.777083,-0.783333,-0.783333,-0.783333,-0.783333,-0.783333,-0.783333,-0.783333,-0.78125,-0.770833,-0.752083,-0.727083,-0.7125,-0.654167,-0.63125,-0.608333,-0.558333,-0.533333,-0.479167,-0.427083,-0.402083,-0.35625,-0.335417,-0.3,-0.270833,-0.24375,-0.23125,-0.210417,-0.202083,-0.1875,-0.177083,-0.16875,-0.164583,-0.15625,-0.152083,-0.14375,-0.133333,-0.120833,-0.114583,-0.104167,-0.1,-0.091667,-0.083333,-0.077083,-0.072917,-0.0625,-0.058333,-0.047917,-0.041667,-0.035417,-0.033333,-0.029167,-0.027083,-0.020833,-0.016667,-0.0125,-0.0125,-0.010417,-0.008333,-0.00625,-0.00625,-0.004167,-0.004167,-0.004167]","[-0.023556,-0.023556,-0.023556,-0.023556,-0.023556,-0.023556,-0.023556,-0.023556,-0.023556,-0.023556,-0.023556,-0.023556,-0.023556,-0.023556,-0.023556,-0.020444,-0.020444,-0.017333,-0.011111,-0.001778,0.010667,0.035556,0.054222,0.094667,0.119556,0.169333,0.228444,0.287556,0.318667,0.377778,0.405778,0.464889,0.524,0.583111,0.611111,0.660889,0.685778,0.72,0.744889,0.760444,0.763556,0.772889,0.776,0.776,0.776,0.776,0.776,0.776,0.772889,0.766667,0.754222,0.732444,0.710667,0.698222,0.657778,0.642222,0.626667,0.592444,0.573778,0.536444,0.496,0.477333,0.436889,0.418222,0.384,0.356,0.328,0.315556,0.287556,0.278222,0.259556,0.244,0.231556,0.225333,0.212889,0.209778,0.200444,0.194222,0.191111,0.184889,0.178667,0.175556,0.169333,0.16,0.153778,0.147556,0.135111,0.128889,0.119556,0.110222,0.104,0.100889,0.094667,0.091556,0.085333,0.079111,0.072889,0.069778,0.063556,0.060444,0.051111,0.048,0.044889,0.041778,0.038667]","[0.0006,0.0167,0.0329,0.0498,0.0664,0.083,0.0993,0.116,0.1332,0.1499,0.167,0.183,0.1994,0.2167,0.2333,0.2502,0.2667,0.2833,0.3,0.3168,0.3335,0.35,0.3668,0.3835,0.4003,0.4168,0.4334,0.4503,0.4672,0.4837,0.5004,0.517,0.5335,0.5504,0.5671,0.5836,0.6003,0.6173,0.6364,0.6507,0.6676,0.6839,0.7007,0.7173,0.7339,0.7504,0.7673,0.7838,0.8006,0.8175,0.8342,0.8528,0.8699,0.8849,0.9107,0.9248,0.9346,0.9511,0.9679,0.9845,1.0011,1.0177,1.0346,1.0508,1.0675,1.0846,1.1013,1.1176,1.1345,1.1509,1.168,1.1847,1.201,1.2178,1.2347,1.251,1.2678,1.2848,1.3012,1.3178,1.3348,1.3512,1.3678,1.3847,1.4011,1.418,1.4349,1.4512,1.468,1.4851,1.5016,1.5179,1.5351,1.5514,1.568,1.5852,1.6016,1.6182,1.6351,1.6516,1.6684,1.6851,1.7019,1.7181,1.7353]","[1,1,1,1,1,1,1,1,1,1,1,1,1,1,1,1,1,1,1,1,1,1,1,1,1,1,1,1,1,1,1,1,1,1,1,1,1,2,2,2,2,2,2,2,2,2,2,2,2,2,2,2,2,2,2,2,2,2,2,2,2,2,2,2,2,2,2,2,2,2,2,2,2,2,2,2,2,2,2,2,2,2,2,2,2,2,2,2,2,2,2,2,2,2,2,2,2,2,2,2,2,2,2,2,2]",16,74.394,4,30,0,30,0,1,Zeenat,4,SV_6SxWlNLsoRj8nqK,304B,2022-06-17_15h03.05.787,implicit_time,2021.1.4,Linux x86_64,59.95563283
cursorjump,127.5,0,0,10,NA,0,NA,0,0,0.5,FALSE,practice,0,"[0.004167,0.002083,0.002083,0.002083,0.002083,0.004167,0.0125,0.01875,0.033333,0.04375,0.0625,0.085417,0.110417,0.125,0.154167,0.16875,0.2,0.233333,0.260417,0.270833,0.283333,0.285417,0.277083,0.25625,0.220833,0.2,0.154167,0.13125,0.0875,0.045833,0.002083,-0.022917,-0.06875,-0.09375,-0.141667,-0.1875,-0.227083,-0.24375,-0.272917,-0.285417,-0.310417,-0.329167,-0.34375,-0.345833,-0.341667,-0.3375,-0.327083,-0.322917,-0.314583,-0.304167,-0.2875,-0.279167,-0.2625,-0.254167,-0.245833,-0.241667,-0.239583,-0.239583,-0.239583,-0.2375,-0.229167,-0.214583,-0.189583,-0.172917,-0.1375,-0.120833,-0.085417,-0.054167,-0.041667,-0.022917,-0.008333,-0.004167,0.004167,0.010417,0.0125,0.020833,0.029167,0.033333,0.033333,0.025,0.01875,-0.002083,-0.029167,-0.05625,-0.06875,-0.089583,-0.097917,-0.116667,-0.133333,-0.14375,-0.145833,-0.145833,-0.145833,-0.139583,-0.129167,-0.11875,-0.1125,-0.104167,-0.102083,-0.095833,-0.095833,-0.09375,-0.091667,-0.08125,-0.075,-0.064583,-0.054167,-0.05,-0.0375]","[0.010667,0.016889,0.026222,0.029333,0.041778,0.057333,0.079111,0.091556,0.122667,0.138222,0.175556,0.216,0.253333,0.272,0.315556,0.337333,0.387111,0.443111,0.496,0.520889,0.570667,0.595556,0.639111,0.673333,0.698222,0.710667,0.729333,0.738667,0.748,0.751111,0.757333,0.763556,0.776,0.785333,0.804,0.825778,0.847556,0.86,0.888,0.900444,0.925333,0.947111,0.965778,0.978222,0.984444,0.984444,0.984444,0.981333,0.975111,0.962667,0.944,0.931556,0.894222,0.869333,0.816444,0.760444,0.707556,0.679556,0.623556,0.595556,0.542667,0.502222,0.474222,0.461778,0.433778,0.415111,0.380889,0.346667,0.331111,0.303111,0.275111,0.262667,0.244,0.234667,0.234667,0.234667,0.244,0.253333,0.275111,0.303111,0.312444,0.334222,0.349778,0.356,0.356,0.359111,0.359111,0.356,0.352889,0.343556,0.337333,0.318667,0.306222,0.275111,0.244,0.209778,0.188,0.144444,0.119556,0.069778,0.023111,-0.004889,-0.011111,-0.008,-0.001778,0.007556,0.010667,0.013778,0.013778]","[0.0006,0.0169,0.0332,0.0493,0.0661,0.0834,0.1,0.1167,0.1334,0.1499,0.1666,0.1834,0.2003,0.2167,0.2337,0.2502,0.2668,0.2838,0.3003,0.3169,0.3338,0.3501,0.367,0.3845,0.4006,0.4192,0.4343,0.4503,0.467,0.4842,0.5007,0.5173,0.5342,0.5506,0.5672,0.5841,0.601,0.6173,0.6343,0.6505,0.6675,0.6869,0.7074,0.7244,0.741,0.7579,0.7743,0.7911,0.8079,0.8243,0.8411,0.8579,0.8743,0.8912,0.9079,0.9244,0.9411,0.9577,0.9746,0.9913,1.0079,1.0244,1.0413,1.0578,1.0748,1.0914,1.1081,1.1246,1.1412,1.1578,1.1748,1.1914,1.2078,1.2247,1.2413,1.2579,1.2747,1.2906,1.3075,1.3241,1.3415,1.3576,1.3749,1.3916,1.4082,1.425,1.441,1.4576,1.4752,1.4917,1.5083,1.5244,1.5412,1.5578,1.5751,1.5918,1.6078,1.6245,1.6411,1.6586,1.6746,1.6919,1.7079,1.7246,1.7412,1.7578,1.7745,1.7914,1.808]","[1,1,1,1,1,1,1,1,1,1,1,1,1,1,1,1,1,1,1,1,1,1,1,1,1,1,1,1,1,1,1,1,1,1,1,1,1,1,1,1,2,2,2,2,2,2,2,2,2,2,2,2,2,2,2,2,2,2,2,2,2,2,2,2,2,2,2,2,2,2,2,2,2,2,2,2,2,2,2,2,2,2,2,2,2,2,2,2,2,2,2,2,2,2,2,2,2,2,2,2,2,2,2,2,2,2,2,2,2]",16,76.7198,4,31,0,31,0,1,Zeenat,4,SV_6SxWlNLsoRj8nqK,304B,2022-06-17_15h03.05.787,implicit_time,2021.1.4,Linux x86_64,59.95563283
cursorjump,75,0,0.5,10,NA,0,NA,0,1,0.5,FALSE,baseline,1,"[-0.010417,-0.00625,-0.002083,0,0,0.002083,0.004167,0.008333,0.014583,0.016667,0.020833,0.022917,0.022917,0.022917,0.025,0.025,0.025,0.025,0.025,0.025,0.025,0.025,0.025,0.027083,0.027083,0.027083,0.029167,0.03125,0.035417,0.041667,0.045833,0.052083,0.058333,0.058333,0.0625,0.064583,0.070833,0.075,0.085417,0.089583,0.10625,0.13125,0.145833,0.18125,0.220833,0.241667,0.279167,0.297917,0.29375,0.291667,0.2875,0.285417,0.283333,0.283333,0.28125,0.272917,0.258333,0.252083,0.2375,0.233333,0.222917,0.214583,0.208333,0.20625,0.2,0.195833,0.185417,0.175,0.160417,0.152083,0.135417,0.129167,0.116667,0.104167,0.091667,0.0875,0.077083,0.072917,0.0625,0.054167,0.045833,0.041667,0.035417,0.033333,0.029167,0.022917,0.01875,0.01875,0.01875,0.020833,0.020833,0.020833,0.01875,0.01875,0.016667,0.016667,0.014583,0.016667,0.016667,0.01875,0.020833]","[-0.023556,-0.023556,-0.023556,-0.023556,-0.023556,-0.023556,-0.023556,-0.020444,-0.014222,-0.014222,-0.008,-0.008,-0.008,-0.008,-0.004889,-0.004889,-0.004889,-0.001778,-0.001778,-0.001778,-0.001778,-0.001778,-0.001778,-0.001778,-0.001778,0.004444,0.016889,0.026222,0.054222,0.088444,0.110222,0.150667,0.188,0.203556,0.234667,0.268889,0.306222,0.328,0.377778,0.405778,0.474222,0.552,0.595556,0.692,0.788444,0.838222,0.931556,0.978222,0.981333,0.981333,0.978222,0.975111,0.975111,0.972,0.975111,0.978222,0.981333,0.984444,0.984444,0.984444,0.972,0.950222,0.916,0.897333,0.847556,0.822667,0.772889,0.72,0.667111,0.639111,0.58,0.552,0.492889,0.436889,0.390222,0.368444,0.331111,0.312444,0.278222,0.250222,0.225333,0.212889,0.188,0.178667,0.156889,0.141333,0.125778,0.116444,0.104,0.097778,0.091556,0.088444,0.079111,0.076,0.063556,0.060444,0.054222,0.051111,0.044889,0.041778,0.032444]","[0.0006,0.0163,0.0329,0.0496,0.0664,0.0831,0.0999,0.1165,0.1331,0.1498,0.1664,0.1831,0.1998,0.217,0.2331,0.2499,0.2666,0.2833,0.3,0.3167,0.3332,0.3501,0.3666,0.3834,0.4001,0.4168,0.4334,0.4501,0.4667,0.4834,0.5002,0.5168,0.5333,0.5501,0.5668,0.5834,0.6004,0.6167,0.6329,0.6504,0.6668,0.6834,0.7003,0.7171,0.7335,0.75,0.7666,0.7838,0.8006,0.8171,0.8338,0.8502,0.8669,0.8838,0.9001,0.9171,0.9337,0.9503,0.967,0.9837,1.0002,1.0171,1.0337,1.0505,1.0671,1.084,1.1009,1.1178,1.1339,1.1509,1.1677,1.1841,1.2008,1.2176,1.2339,1.2508,1.2674,1.2839,1.3001,1.3176,1.3341,1.3507,1.3673,1.3835,1.4011,1.4176,1.4335,1.4504,1.4678,1.4843,1.501,1.5169,1.5343,1.5504,1.5673,1.5841,1.6005,1.6172,1.6341,1.6511,1.6676]","[1,1,1,1,1,1,1,1,1,1,1,1,1,1,1,1,1,1,1,1,1,1,1,1,1,1,1,1,1,1,1,1,1,1,1,1,1,1,1,1,1,1,1,1,1,1,2,2,2,2,2,2,2,2,2,2,2,2,2,2,2,2,2,2,2,2,2,2,2,2,2,2,2,2,2,2,2,2,2,2,2,2,2,2,2,2,2,2,2,2,2,2,2,2,2,2,2,2,2,2,2]",1,81.4069,4,32,0,32,0,1,Zeenat,4,SV_6SxWlNLsoRj8nqK,304B,2022-06-17_15h03.05.787,implicit_time,2021.1.4,Linux x86_64,59.95563283
cursorjump,67.5,0,0,10,NA,0,NA,0,0,0.5,FALSE,baseline,0,"[0.0125,0.010417,0.010417,0.008333,0.00625,0.00625,0.004167,0.004167,0.004167,0.004167,0.004167,0.004167,0.004167,0.004167,0.004167,0.004167,0.002083,0.002083,0,-0.002083,-0.004167,-0.004167,0,0.008333,0.027083,0.041667,0.083333,0.114583,0.18125,0.252083,0.314583,0.341667,0.389583,0.404167,0.410417,0.408333,0.40625,0.40625,0.40625,0.40625,0.404167,0.402083,0.391667,0.385417,0.366667,0.354167,0.33125,0.30625,0.28125,0.266667,0.2375,0.220833,0.189583,0.158333,0.13125,0.11875,0.09375,0.083333,0.0625,0.045833,0.0375,0.025,0.014583,0.010417,0.002083,-0.004167,-0.00625,-0.0125,-0.014583,-0.016667,-0.01875,-0.022917,-0.022917,-0.025,-0.027083,-0.027083,-0.027083,-0.022917,-0.020833,-0.014583]","[-0.020444,-0.020444,-0.020444,-0.020444,-0.020444,-0.020444,-0.020444,-0.020444,-0.020444,-0.020444,-0.020444,-0.020444,-0.020444,-0.020444,-0.017333,-0.017333,-0.011111,-0.004889,0.001333,0.013778,0.038667,0.057333,0.100889,0.16,0.228444,0.268889,0.362222,0.415111,0.527111,0.642222,0.760444,0.816444,0.909778,0.937778,0.950222,0.947111,0.947111,0.947111,0.947111,0.947111,0.950222,0.950222,0.944,0.940889,0.919111,0.903556,0.863111,0.807111,0.748,0.716889,0.651556,0.620444,0.558222,0.496,0.436889,0.408889,0.365333,0.346667,0.309333,0.275111,0.259556,0.234667,0.209778,0.197333,0.178667,0.16,0.153778,0.138222,0.119556,0.110222,0.094667,0.079111,0.076,0.066667,0.057333,0.054222,0.044889,0.041778,0.038667,0.032444]","[0.0005,0.0163,0.033,0.0497,0.0665,0.083,0.0997,0.1163,0.133,0.1494,0.1661,0.1831,0.1993,0.2164,0.2333,0.2498,0.2667,0.2832,0.2997,0.3165,0.3333,0.3499,0.3667,0.3831,0.4,0.4168,0.4333,0.4497,0.4668,0.4834,0.5001,0.5168,0.5336,0.5503,0.5669,0.5833,0.6003,0.6172,0.6332,0.65,0.6669,0.6837,0.7006,0.7169,0.7337,0.7507,0.7669,0.7837,0.8005,0.8172,0.8339,0.851,0.867,0.8839,0.9007,0.9174,0.934,0.9506,0.9672,0.9836,1.0004,1.0172,1.0336,1.0502,1.0673,1.0839,1.1004,1.1175,1.1339,1.1503,1.1673,1.1838,1.2002,1.2173,1.2339,1.2503,1.2674,1.284,1.3004,1.3171]","[1,1,1,1,1,1,1,1,1,1,1,1,1,1,1,1,1,1,1,1,1,1,1,1,1,1,1,1,1,1,1,1,2,2,2,2,2,2,2,2,2,2,2,2,2,2,2,2,2,2,2,2,2,2,2,2,2,2,2,2,2,2,2,2,2,2,2,2,2,2,2,2,2,2,2,2,2,2,2,2]",1,83.2413,4,33,0,33,0,1,Zeenat,4,SV_6SxWlNLsoRj8nqK,304B,2022-06-17_15h03.05.787,implicit_time,2021.1.4,Linux x86_64,59.95563283
cursorjump,45,0,0.5,10,NA,0,NA,0,1,0.5,FALSE,baseline,1,"[0.004167,0.004167,0.004167,0.004167,0.004167,0.004167,0.004167,0.004167,0.004167,0.004167,0.004167,0.004167,0.00625,0.00625,0.00625,0.00625,0.00625,0.008333,0.010417,0.016667,0.025,0.041667,0.054167,0.089583,0.145833,0.179167,0.25625,0.335417,0.375,0.45,0.485417,0.554167,0.622917,0.689583,0.714583,0.739583,0.741667,0.74375,0.752083,0.75625,0.758333,0.75625,0.752083,0.725,0.685417,0.645833,0.625,0.583333,0.560417,0.5125,0.4625,0.414583,0.3875,0.335417,0.310417,0.266667,0.23125,0.202083,0.1875,0.164583,0.152083,0.13125,0.116667,0.102083,0.095833,0.085417,0.08125,0.072917,0.066667,0.060417,0.05625,0.05,0.047917,0.041667,0.0375,0.033333,0.03125,0.027083,0.027083,0.022917,0.020833]","[0.007556,0.004444,0.004444,0.004444,0.004444,0.004444,0.004444,0.004444,0.007556,0.007556,0.010667,0.013778,0.013778,0.016889,0.02,0.023111,0.026222,0.032444,0.038667,0.051111,0.072889,0.110222,0.132,0.181778,0.234667,0.262667,0.312444,0.368444,0.399556,0.468,0.505333,0.58,0.651556,0.710667,0.729333,0.744889,0.744889,0.738667,0.732444,0.729333,0.729333,0.729333,0.729333,0.729333,0.723111,0.707556,0.695111,0.660889,0.639111,0.595556,0.555111,0.514667,0.492889,0.449333,0.427556,0.387111,0.349778,0.315556,0.3,0.268889,0.256444,0.231556,0.212889,0.200444,0.194222,0.181778,0.178667,0.169333,0.156889,0.141333,0.132,0.116444,0.107111,0.091556,0.079111,0.066667,0.063556,0.054222,0.051111,0.041778,0.032444]","[0.0006,0.0162,0.0327,0.0495,0.066,0.0848,0.0998,0.1161,0.133,0.1496,0.1662,0.1829,0.1997,0.2162,0.2331,0.2496,0.2665,0.2832,0.2997,0.3166,0.3331,0.35,0.3667,0.3834,0.3999,0.4166,0.4333,0.4499,0.4666,0.4834,0.5,0.5166,0.5335,0.5502,0.5668,0.5833,0.6,0.6167,0.6335,0.6501,0.6668,0.6837,0.7002,0.7169,0.7337,0.7504,0.7671,0.7835,0.7999,0.8168,0.8336,0.8501,0.8669,0.8837,0.9001,0.917,0.9336,0.95,0.9671,0.9837,1.0001,1.0172,1.0336,1.0502,1.0672,1.0839,1.1006,1.1174,1.1342,1.1508,1.167,1.1841,1.2008,1.2172,1.2338,1.2503,1.2674,1.284,1.3003,1.3169,1.3337]","[1,1,1,1,1,1,1,1,1,1,1,1,1,1,1,1,1,1,1,1,1,1,1,1,1,1,1,1,1,1,1,1,1,2,2,2,2,2,2,2,2,2,2,2,2,2,2,2,2,2,2,2,2,2,2,2,2,2,2,2,2,2,2,2,2,2,2,2,2,2,2,2,2,2,2,2,2,2,2,2,2]",2,85.0925,4,34,0,34,0,1,Zeenat,4,SV_6SxWlNLsoRj8nqK,304B,2022-06-17_15h03.05.787,implicit_time,2021.1.4,Linux x86_64,59.95563283
cursorjump,52.5,0,0,10,NA,0,NA,0,0,0.5,FALSE,baseline,0,"[0.016667,0.016667,0.016667,0.016667,0.014583,0.014583,0.014583,0.014583,0.014583,0.014583,0.014583,0.014583,0.014583,0.014583,0.016667,0.020833,0.022917,0.029167,0.03125,0.039583,0.052083,0.060417,0.0875,0.129167,0.15625,0.220833,0.289583,0.327083,0.408333,0.5,0.55,0.629167,0.664583,0.675,0.679167,0.685417,0.6875,0.689583,0.6875,0.679167,0.670833,0.645833,0.633333,0.604167,0.572917,0.55625,0.520833,0.48125,0.458333,0.4125,0.366667,0.34375,0.3,0.258333,0.235417,0.189583,0.14375,0.120833,0.085417,0.05625,0.045833,0.027083,0.0125,0.004167,-0.008333,-0.016667,-0.020833,-0.027083,-0.033333,-0.0375,-0.041667,-0.04375,-0.04375,-0.04375,-0.04375,-0.04375,-0.04375,-0.041667,-0.041667,-0.039583]","[-0.014222,-0.014222,-0.014222,-0.011111,-0.011111,-0.011111,-0.008,-0.008,-0.004889,-0.001778,0.001333,0.004444,0.007556,0.010667,0.016889,0.026222,0.032444,0.044889,0.051111,0.076,0.110222,0.132,0.188,0.256444,0.293778,0.371556,0.455556,0.502222,0.592444,0.685778,0.729333,0.791556,0.807111,0.797778,0.794667,0.791556,0.788444,0.788444,0.791556,0.794667,0.794667,0.785333,0.779111,0.757333,0.729333,0.713778,0.676444,0.636,0.614222,0.570667,0.520889,0.496,0.446222,0.396444,0.371556,0.324889,0.278222,0.259556,0.225333,0.194222,0.178667,0.153778,0.132,0.122667,0.107111,0.094667,0.088444,0.076,0.060444,0.057333,0.048,0.038667,0.035556,0.026222,0.016889,0.013778,0.007556,0.004444,0.001333,-0.001778]","[0.0005,0.0163,0.0336,0.05,0.0661,0.083,0.1003,0.1161,0.133,0.1497,0.1664,0.1831,0.1999,0.2165,0.2331,0.2503,0.2665,0.2832,0.2999,0.3166,0.333,0.3498,0.3667,0.3834,0.3998,0.4166,0.4334,0.45,0.4668,0.4834,0.5,0.5168,0.5336,0.5501,0.5668,0.5835,0.6002,0.6167,0.6335,0.6504,0.6669,0.6835,0.7008,0.7168,0.7337,0.7504,0.7668,0.784,0.8005,0.817,0.8338,0.8505,0.8674,0.8838,0.9006,0.9173,0.934,0.9507,0.9674,0.9841,1.0009,1.0173,1.034,1.0508,1.0675,1.0842,1.1009,1.1176,1.1342,1.1509,1.1676,1.1841,1.2009,1.2176,1.2345,1.2507,1.2675,1.2841,1.3074,1.3177]","[1,1,1,1,1,1,1,1,1,1,1,1,1,1,1,1,1,1,1,1,1,1,1,1,1,1,1,1,1,1,1,2,2,2,2,2,2,2,2,2,2,2,2,2,2,2,2,2,2,2,2,2,2,2,2,2,2,2,2,2,2,2,2,2,2,2,2,2,2,2,2,2,2,2,2,2,2,2,2,2]",2,86.9278,4,35,0,35,0,1,Zeenat,4,SV_6SxWlNLsoRj8nqK,304B,2022-06-17_15h03.05.787,implicit_time,2021.1.4,Linux x86_64,59.95563283
